rt1,resp1,correct1,features_1,features_2,features_3,features_4,features_5,features_6,ExpName,subNo,seqA,seqB,block,trial,trialnum,cuetype,task,subtaskcode,corr_resp1,onsetTime_s,onsetTime_cue,onset_cue,onsetTime_cue_fb,onset_cue_fb
2695,4$,1,62,12,42,51,31,22,Abstract_Concrete_6tasks_simseq_2seq_listtask_switchAB_fMRI,130785,12345,43152,1,1,1,B1,weapon,5,4$,5311.8376529,5319.8481187,8.01046580000002,0,0
6953,4$,1,61,11,42,52,31,21,Abstract_Concrete_6tasks_simseq_2seq_listtask_switchAB_fMRI,130785,12345,43152,1,2,2,A4,weapon,5,4$,5311.8376529,5329.8474628,18.0098099000006,0,0
7861,7&,1,61,11,41,51,32,21,Abstract_Concrete_6tasks_simseq_2seq_listtask_switchAB_fMRI,130785,12345,43152,1,3,3,B4,tools,6,7&,5311.8376529,5343.8495344,32.0118815000005,0,0
4880,2@,1,61,12,42,51,31,22,Abstract_Concrete_6tasks_simseq_2seq_listtask_switchAB_fMRI,130785,12345,43152,1,4,4,A2,vest,2,2@,5311.8376529,5358.8546565,47.0170036,0,0
3052,8*,1,61,11,42,51,31,22,Abstract_Concrete_6tasks_simseq_2seq_listtask_switchAB_fMRI,130785,12345,43152,1,5,5,B3,helmet,1,8*,5311.8376529,5370.8489295,59.0112766000002,0,0
2564,8*,1,61,12,42,51,31,21,Abstract_Concrete_6tasks_simseq_2seq_listtask_switchAB_fMRI,130785,12345,43152,1,6,6,A1,helmet,1,8*,5311.8376529,5381.8493142,70.0116613,0,0
3471,7&,1,62,11,42,51,31,21,Abstract_Concrete_6tasks_simseq_2seq_listtask_switchAB_fMRI,130785,12345,43152,1,7,7,B4,tools,6,7&,5311.8376529,5391.8495452,80.0118923,0,0
3064,4$,1,62,11,42,52,31,22,Abstract_Concrete_6tasks_simseq_2seq_listtask_switchAB_fMRI,130785,12345,43152,1,8,8,A4,weapon,5,4$,5311.8376529,5402.8507882,91.0131353000006,0,0
2837,2@,1,61,11,42,52,32,21,Abstract_Concrete_6tasks_simseq_2seq_listtask_switchAB_fMRI,130785,12345,43152,1,9,9,B5,vest,2,2@,5311.8376529,5413.8516374,102.0139845,0,0
4978,7&,1,61,12,41,52,32,22,Abstract_Concrete_6tasks_simseq_2seq_listtask_switchAB_fMRI,130785,12345,43152,1,10,10,A5,tools,6,7&,5311.8376529,5423.8486563,112.0110034,0,0
3792,2@,1,61,11,42,51,32,22,Abstract_Concrete_6tasks_simseq_2seq_listtask_switchAB_fMRI,130785,12345,43152,1,11,11,B5,vest,2,2@,5311.8376529,5435.8485351,124.0108822,0,0
3756,2@,1,62,11,41,51,32,22,Abstract_Concrete_6tasks_simseq_2seq_listtask_switchAB_fMRI,130785,12345,43152,1,12,12,A2,vest,2,2@,5311.8376529,5446.8493401,135.0116872,0,0
2097,2@,1,62,12,41,51,31,22,Abstract_Concrete_6tasks_simseq_2seq_listtask_switchAB_fMRI,130785,12345,43152,1,13,13,B5,vest,2,2@,5311.8376529,5457.8484141,146.0107612,0,0
5012,2@,1,62,12,42,51,31,21,Abstract_Concrete_6tasks_simseq_2seq_listtask_switchAB_fMRI,130785,12345,43152,1,14,14,A2,vest,2,2@,5311.8376529,5467.8495178,156.011864900001,0,0
5836,7&,1,62,12,42,52,31,22,Abstract_Concrete_6tasks_simseq_2seq_listtask_switchAB_fMRI,130785,12345,43152,1,15,15,B4,tools,6,7&,5311.8376529,5480.8484492,169.0107963,0,0
1385,8*,1,62,12,42,51,31,21,Abstract_Concrete_6tasks_simseq_2seq_listtask_switchAB_fMRI,130785,12345,43152,1,16,16,A1,helmet,1,8*,5311.8376529,5493.8484489,182.010796,0,0
1729,4$,1,62,12,42,52,32,21,Abstract_Concrete_6tasks_simseq_2seq_listtask_switchAB_fMRI,130785,12345,43152,1,17,17,B1,weapon,5,4$,5311.8376529,5502.8499279,191.012275,0,0
3009,7&,1,61,12,42,51,31,21,Abstract_Concrete_6tasks_simseq_2seq_listtask_switchAB_fMRI,130785,12345,43152,1,18,18,A5,tools,6,7&,5311.8376529,5511.850349,200.012696100001,0,0
2611,3#,1,61,12,42,52,31,21,Abstract_Concrete_6tasks_simseq_2seq_listtask_switchAB_fMRI,130785,12345,43152,1,19,19,B2,glasses,3,3#,5311.8376529,5522.8503383,211.0126854,0,0
1778,3#,1,62,12,42,52,31,22,Abstract_Concrete_6tasks_simseq_2seq_listtask_switchAB_fMRI,130785,12345,43152,1,20,20,A3,glasses,3,3#,5311.8376529,5532.8492351,221.011582200001,0,0
3346,8*,1,61,12,42,51,31,21,Abstract_Concrete_6tasks_simseq_2seq_listtask_switchAB_fMRI,130785,12345,43152,1,21,21,B3,helmet,1,8*,5311.8376529,5541.8505994,230.0129465,0,0
2255,8*,1,61,11,41,51,32,21,Abstract_Concrete_6tasks_simseq_2seq_listtask_switchAB_fMRI,130785,12345,43152,1,22,22,A1,helmet,1,8*,5311.8376529,5552.8506857,241.0130328,0,0
1353,4$,1,61,12,41,51,31,22,Abstract_Concrete_6tasks_simseq_2seq_listtask_switchAB_fMRI,130785,12345,43152,1,23,23,B1,weapon,5,4$,5311.8376529,5562.8486615,251.0110086,0,0
2672,2@,1,61,11,42,51,32,21,Abstract_Concrete_6tasks_simseq_2seq_listtask_switchAB_fMRI,130785,12345,43152,1,24,24,A2,vest,2,2@,5311.8376529,5571.8497483,260.0120954,0,0
5075,2@,1,62,12,41,52,31,21,Abstract_Concrete_6tasks_simseq_2seq_listtask_switchAB_fMRI,130785,12345,43152,1,25,25,B5,vest,2,2@,5311.8376529,5581.8507493,270.0130964,0,0
2203,7&,1,61,11,41,51,32,22,Abstract_Concrete_6tasks_simseq_2seq_listtask_switchAB_fMRI,130785,12345,43152,1,26,26,A5,tools,6,7&,5311.8376529,5594.8501944,283.0125415,0,0
3760,7&,1,62,11,42,52,31,22,Abstract_Concrete_6tasks_simseq_2seq_listtask_switchAB_fMRI,130785,12345,43152,1,27,27,B4,tools,6,7&,5311.8376529,5604.848551,293.0108981,0,0
1863,4$,1,61,11,41,52,31,22,Abstract_Concrete_6tasks_simseq_2seq_listtask_switchAB_fMRI,130785,12345,43152,1,28,28,A4,weapon,5,4$,5311.8376529,5615.8488248,304.011171900001,0,0
3001,3#,1,62,11,42,51,32,22,Abstract_Concrete_6tasks_simseq_2seq_listtask_switchAB_fMRI,130785,12345,43152,1,29,29,B2,glasses,3,3#,5311.8376529,5624.8496018,313.0119489,0,0
5417,7&,1,62,12,41,51,31,21,Abstract_Concrete_6tasks_simseq_2seq_listtask_switchAB_fMRI,130785,12345,43152,1,30,30,A5,tools,6,7&,5311.8376529,5635.8500696,324.0124167,0,0
2848,8*,1,61,12,41,51,32,21,Abstract_Concrete_6tasks_simseq_2seq_listtask_switchAB_fMRI,130785,12345,43152,1,31,31,B3,helmet,1,8*,5311.8376529,5648.8492907,337.0116378,0,0
2200,3#,1,61,11,42,51,32,21,Abstract_Concrete_6tasks_simseq_2seq_listtask_switchAB_fMRI,130785,12345,43152,1,32,32,A3,glasses,3,3#,5311.8376529,5658.8489466,347.0112937,0,0
1527,3#,1,61,11,42,51,32,22,Abstract_Concrete_6tasks_simseq_2seq_listtask_switchAB_fMRI,130785,12345,43152,1,33,33,B2,glasses,3,3#,5311.8376529,5668.8492832,357.0116303,0,0
2557,4$,1,61,11,41,52,31,22,Abstract_Concrete_6tasks_simseq_2seq_listtask_switchAB_fMRI,130785,12345,43152,1,34,34,A4,weapon,5,4$,5311.8376529,5677.8487282,366.0110753,0,0
1870,3#,1,62,11,42,52,32,21,Abstract_Concrete_6tasks_simseq_2seq_listtask_switchAB_fMRI,130785,12345,43152,1,35,35,B2,glasses,3,3#,5311.8376529,5687.8479857,376.0103328,0,0
1535,8*,1,61,12,41,51,32,21,Abstract_Concrete_6tasks_simseq_2seq_listtask_switchAB_fMRI,130785,12345,43152,1,36,36,A1,helmet,1,8*,5311.8376529,5696.8488476,385.0111947,0,0
1511,4$,1,62,11,41,52,32,21,Abstract_Concrete_6tasks_simseq_2seq_listtask_switchAB_fMRI,130785,12345,43152,1,37,37,B1,weapon,5,4$,5311.8376529,5705.8493801,394.011727200001,0,0
2989,3#,1,61,12,41,52,31,21,Abstract_Concrete_6tasks_simseq_2seq_listtask_switchAB_fMRI,130785,12345,43152,1,38,38,A3,glasses,3,3#,5311.8376529,5714.8484693,403.0108164,0,0
2522,8*,1,62,12,41,52,31,22,Abstract_Concrete_6tasks_simseq_2seq_listtask_switchAB_fMRI,130785,12345,43152,1,39,39,B3,helmet,1,8*,5311.8376529,5725.8509365,414.0132836,0,0
1521,3#,1,62,11,42,51,32,21,Abstract_Concrete_6tasks_simseq_2seq_listtask_switchAB_fMRI,130785,12345,43152,1,40,40,A3,glasses,3,3#,5311.8376529,5735.8496079,424.011955,0,0
3197,2@,1,61,11,41,52,32,21,Abstract_Concrete_6tasks_simseq_2seq_listtask_switchAB_fMRI,130785,12345,43152,2,1,41,A2,vest,2,2@,5785.5234695,5793.5364908,8.01302130000022,0,0
5572,7&,1,61,11,41,52,32,21,Abstract_Concrete_6tasks_simseq_2seq_listtask_switchAB_fMRI,130785,12345,43152,2,2,42,B4,tools,6,7&,5785.5234695,5804.5376329,19.0141634000001,0,0
2098,7&,1,61,11,41,52,32,21,Abstract_Concrete_6tasks_simseq_2seq_listtask_switchAB_fMRI,130785,12345,43152,2,3,43,A5,tools,6,7&,5785.5234695,5817.5377038,32.0142342999998,0,0
2033,4$,1,61,12,42,51,31,22,Abstract_Concrete_6tasks_simseq_2seq_listtask_switchAB_fMRI,130785,12345,43152,2,4,44,B1,weapon,5,4$,5785.5234695,5827.5370632,42.0135937000005,0,0
2792,3#,1,61,11,41,52,32,22,Abstract_Concrete_6tasks_simseq_2seq_listtask_switchAB_fMRI,130785,12345,43152,2,5,45,A3,glasses,3,3#,5785.5234695,5837.535791,52.0123215000003,0,0
1699,2@,1,61,12,41,51,31,21,Abstract_Concrete_6tasks_simseq_2seq_listtask_switchAB_fMRI,130785,12345,43152,2,6,46,B5,vest,2,2@,5785.5234695,5847.5352737,62.0118042000004,0,0
2966,4$,1,61,12,41,52,32,21,Abstract_Concrete_6tasks_simseq_2seq_listtask_switchAB_fMRI,130785,12345,43152,2,7,47,A4,weapon,5,4$,5785.5234695,5856.5362997,71.0128302000003,0,0
1458,3#,1,62,11,41,52,32,22,Abstract_Concrete_6tasks_simseq_2seq_listtask_switchAB_fMRI,130785,12345,43152,2,8,48,B2,glasses,3,3#,5785.5234695,5866.5332625,81.0097930000002,0,0
2214,3#,1,62,12,42,52,31,22,Abstract_Concrete_6tasks_simseq_2seq_listtask_switchAB_fMRI,130785,12345,43152,2,9,49,A3,glasses,3,3#,5785.5234695,5875.5363607,90.0128912,0,0
2995,7&,1,62,12,42,52,32,21,Abstract_Concrete_6tasks_simseq_2seq_listtask_switchAB_fMRI,130785,12345,43152,2,10,50,B4,tools,6,7&,5785.5234695,5885.534649,100.0111795,0,0
3098,7&,1,62,12,42,51,32,21,Abstract_Concrete_6tasks_simseq_2seq_listtask_switchAB_fMRI,130785,12345,43152,2,11,51,A5,tools,6,7&,5785.5234695,5896.5355511,111.0120816,0,0
1520,4$,1,62,11,41,51,32,21,Abstract_Concrete_6tasks_simseq_2seq_listtask_switchAB_fMRI,130785,12345,43152,2,12,52,B1,weapon,5,4$,5785.5234695,5907.5346267,122.011157200001,0,0
2288,7&,1,61,11,42,51,32,21,Abstract_Concrete_6tasks_simseq_2seq_listtask_switchAB_fMRI,130785,12345,43152,2,13,53,A5,tools,6,7&,5785.5234695,5916.5357135,131.012244,0,0
2529,2@,1,61,12,41,51,32,21,Abstract_Concrete_6tasks_simseq_2seq_listtask_switchAB_fMRI,130785,12345,43152,2,14,54,B5,vest,2,2@,5785.5234695,5926.5358916,141.0124221,0,0
2104,7&,1,62,12,42,52,31,21,Abstract_Concrete_6tasks_simseq_2seq_listtask_switchAB_fMRI,130785,12345,43152,2,15,55,A5,tools,6,7&,5785.5234695,5936.5357547,151.0122852,0,0
3416,7&,1,62,11,41,51,31,22,Abstract_Concrete_6tasks_simseq_2seq_listtask_switchAB_fMRI,130785,12345,43152,2,16,56,B4,tools,6,7&,5785.5234695,5946.5362338,161.012764300001,0,0
2543,8*,1,62,11,41,51,31,21,Abstract_Concrete_6tasks_simseq_2seq_listtask_switchAB_fMRI,130785,12345,43152,2,17,57,A1,helmet,1,8*,5785.5234695,5957.5356273,172.0121578,0,0
1523,2@,1,62,11,42,52,32,21,Abstract_Concrete_6tasks_simseq_2seq_listtask_switchAB_fMRI,130785,12345,43152,2,18,58,B5,vest,2,2@,5785.5234695,5967.536871,182.0134015,0,0
1782,8*,1,62,12,41,52,32,22,Abstract_Concrete_6tasks_simseq_2seq_listtask_switchAB_fMRI,130785,12345,43152,2,19,59,A1,helmet,1,8*,5785.5234695,5976.5355903,191.0121208,0,0
1298,3#,1,61,12,42,52,32,21,Abstract_Concrete_6tasks_simseq_2seq_listtask_switchAB_fMRI,130785,12345,43152,2,20,60,B2,glasses,3,3#,5785.5234695,5985.5345391,200.0110696,0,0
3482,2@,1,61,12,42,51,32,22,Abstract_Concrete_6tasks_simseq_2seq_listtask_switchAB_fMRI,130785,12345,43152,2,21,61,A2,vest,2,2@,5785.5234695,5994.5347363,209.0112668,0,0
1523,3#,1,61,11,42,52,31,22,Abstract_Concrete_6tasks_simseq_2seq_listtask_switchAB_fMRI,130785,12345,43152,2,22,62,B2,glasses,3,3#,5785.5234695,6005.535821,220.0123515,0,0
2996,3#,1,62,12,42,52,31,22,Abstract_Concrete_6tasks_simseq_2seq_listtask_switchAB_fMRI,130785,12345,43152,2,23,63,A3,glasses,3,3#,5785.5234695,6014.5348902,229.0114207,0,0
4086,7&,1,62,11,41,51,31,21,Abstract_Concrete_6tasks_simseq_2seq_listtask_switchAB_fMRI,130785,12345,43152,2,24,64,B4,tools,6,7&,5785.5234695,6025.5362499,240.0127804,0,0
2424,2@,1,61,12,41,52,31,21,Abstract_Concrete_6tasks_simseq_2seq_listtask_switchAB_fMRI,130785,12345,43152,2,25,65,A2,vest,2,2@,5785.5234695,6037.5396969,252.0162274,0,0
2892,8*,1,62,11,41,51,31,21,Abstract_Concrete_6tasks_simseq_2seq_listtask_switchAB_fMRI,130785,12345,43152,2,26,66,B3,helmet,1,8*,5785.5234695,6047.5384401,262.0149706,0,0
2692,8*,1,61,12,42,52,32,22,Abstract_Concrete_6tasks_simseq_2seq_listtask_switchAB_fMRI,130785,12345,43152,2,27,67,A1,helmet,1,8*,5785.5234695,6057.5364461,272.0129766,0,0
2006,8*,1,62,12,42,52,32,21,Abstract_Concrete_6tasks_simseq_2seq_listtask_switchAB_fMRI,130785,12345,43152,2,28,68,B3,helmet,1,8*,5785.5234695,6067.5353744,282.0119049,0,0
2612,4$,1,61,12,41,52,32,22,Abstract_Concrete_6tasks_simseq_2seq_listtask_switchAB_fMRI,130785,12345,43152,2,29,69,A4,weapon,5,4$,5785.5234695,6077.5354525,292.011983,0,0
2094,4$,1,61,11,42,52,32,22,Abstract_Concrete_6tasks_simseq_2seq_listtask_switchAB_fMRI,130785,12345,43152,2,30,70,B1,weapon,5,4$,5785.5234695,6087.5348452,302.0113757,0,0
2640,8*,1,62,11,41,52,31,22,Abstract_Concrete_6tasks_simseq_2seq_listtask_switchAB_fMRI,130785,12345,43152,2,31,71,A1,helmet,1,8*,5785.5234695,6097.5351327,312.0116632,0,0
1321,4$,1,61,11,42,52,32,21,Abstract_Concrete_6tasks_simseq_2seq_listtask_switchAB_fMRI,130785,12345,43152,2,32,72,B1,weapon,5,4$,5785.5234695,6107.5344884,322.0110189,0,0
1808,2@,1,61,12,41,51,31,22,Abstract_Concrete_6tasks_simseq_2seq_listtask_switchAB_fMRI,130785,12345,43152,2,33,73,A2,vest,2,2@,5785.5234695,6116.5381067,331.0146372,0,0
3409,8*,1,62,12,42,51,32,21,Abstract_Concrete_6tasks_simseq_2seq_listtask_switchAB_fMRI,130785,12345,43152,2,34,74,B3,helmet,1,8*,5785.5234695,6125.5347395,340.01127,0,0
2206,2@,0,62,11,41,52,31,22,Abstract_Concrete_6tasks_simseq_2seq_listtask_switchAB_fMRI,130785,12345,43152,2,35,75,A3,glasses,3,3#,5785.5234695,6136.5351083,351.0116388,6138.7566612,353.2331917
2437,2@,1,61,12,42,51,32,22,Abstract_Concrete_6tasks_simseq_2seq_listtask_switchAB_fMRI,130785,12345,43152,2,36,76,B5,vest,2,2@,5785.5234695,6146.5335493,361.0100798,0,0
2324,4$,1,61,12,42,52,32,21,Abstract_Concrete_6tasks_simseq_2seq_listtask_switchAB_fMRI,130785,12345,43152,2,37,77,A4,weapon,5,4$,5785.5234695,6156.535929,371.0124595,0,0
2890,8*,1,61,11,42,52,32,22,Abstract_Concrete_6tasks_simseq_2seq_listtask_switchAB_fMRI,130785,12345,43152,2,38,78,B3,helmet,1,8*,5785.5234695,6166.5348983,381.0114288,0,0
1999,4$,1,62,12,42,51,31,22,Abstract_Concrete_6tasks_simseq_2seq_listtask_switchAB_fMRI,130785,12345,43152,2,39,79,A4,weapon,5,4$,5785.5234695,6176.5344558,391.0109863,0,0
2914,3#,1,61,12,42,51,31,22,Abstract_Concrete_6tasks_simseq_2seq_listtask_switchAB_fMRI,130785,12345,43152,2,40,80,B2,glasses,3,3#,5785.5234695,6186.5353877,401.0119182,0,0
2963,2@,1,61,11,41,52,31,22,Abstract_Concrete_6tasks_simseq_2seq_listtask_switchAB_fMRI,130785,12345,43152,3,1,81,B5,vest,2,2@,6231.6034456,6239.6163205,8.0128749000005,0,0
1783,2@,1,61,11,41,51,31,21,Abstract_Concrete_6tasks_simseq_2seq_listtask_switchAB_fMRI,130785,12345,43152,3,2,82,A2,vest,2,2@,6231.6034456,6249.6136978,18.0102522000007,0,0
3489,7&,1,62,12,42,51,31,22,Abstract_Concrete_6tasks_simseq_2seq_listtask_switchAB_fMRI,130785,12345,43152,3,3,83,B4,tools,6,7&,6231.6034456,6258.6131602,27.0097145999998,0,0
1929,4$,1,62,11,42,52,32,21,Abstract_Concrete_6tasks_simseq_2seq_listtask_switchAB_fMRI,130785,12345,43152,3,4,84,A4,weapon,5,4$,6231.6034456,6269.6169111,38.0134655000002,0,0
2247,7&,1,61,12,42,52,31,21,Abstract_Concrete_6tasks_simseq_2seq_listtask_switchAB_fMRI,130785,12345,43152,3,5,85,B4,tools,6,7&,6231.6034456,6278.6154499,47.0120043000006,0,0
3144,8*,1,61,11,41,51,31,21,Abstract_Concrete_6tasks_simseq_2seq_listtask_switchAB_fMRI,130785,12345,43152,3,6,86,A1,helmet,1,8*,6231.6034456,6288.6157005,57.0122548999998,0,0
2055,2@,1,61,11,41,51,31,22,Abstract_Concrete_6tasks_simseq_2seq_listtask_switchAB_fMRI,130785,12345,43152,3,7,87,B5,vest,2,2@,6231.6034456,6299.6148788,68.0114332000003,0,0
2898,7&,1,62,11,41,51,32,21,Abstract_Concrete_6tasks_simseq_2seq_listtask_switchAB_fMRI,130785,12345,43152,3,8,88,A5,tools,6,7&,6231.6034456,6309.6150712,78.0116256000001,0,0
3839,7&,1,61,11,42,51,32,21,Abstract_Concrete_6tasks_simseq_2seq_listtask_switchAB_fMRI,130785,12345,43152,3,9,89,B4,tools,6,7&,6231.6034456,6319.6145632,88.0111176,0,0
1947,3#,1,62,12,42,52,31,21,Abstract_Concrete_6tasks_simseq_2seq_listtask_switchAB_fMRI,130785,12345,43152,3,10,90,A3,glasses,3,3#,6231.6034456,6330.6149191,99.0114735000006,0,0
1876,4$,1,61,12,42,52,32,21,Abstract_Concrete_6tasks_simseq_2seq_listtask_switchAB_fMRI,130785,12345,43152,3,11,91,B1,weapon,5,4$,6231.6034456,6339.6169168,108.0134712,0,0
2838,7&,1,61,12,42,52,31,22,Abstract_Concrete_6tasks_simseq_2seq_listtask_switchAB_fMRI,130785,12345,43152,3,12,92,A5,tools,6,7&,6231.6034456,6348.6141783,117.010732700001,0,0
1362,4$,1,62,11,42,52,32,21,Abstract_Concrete_6tasks_simseq_2seq_listtask_switchAB_fMRI,130785,12345,43152,3,13,93,B1,weapon,5,4$,6231.6034456,6358.6150668,127.0116212,0,0
2024,8*,1,61,12,42,51,31,22,Abstract_Concrete_6tasks_simseq_2seq_listtask_switchAB_fMRI,130785,12345,43152,3,14,94,A1,helmet,1,8*,6231.6034456,6367.6134351,136.0099895,0,0
2020,2@,1,61,12,41,52,32,21,Abstract_Concrete_6tasks_simseq_2seq_listtask_switchAB_fMRI,130785,12345,43152,3,15,95,B5,vest,2,2@,6231.6034456,6377.6144638,146.0110182,0,0
3594,4$,1,61,12,41,52,31,21,Abstract_Concrete_6tasks_simseq_2seq_listtask_switchAB_fMRI,130785,12345,43152,3,16,96,A4,weapon,5,4$,6231.6034456,6387.6149197,156.011474100001,0,0
4791,8*,1,62,11,41,52,31,22,Abstract_Concrete_6tasks_simseq_2seq_listtask_switchAB_fMRI,130785,12345,43152,3,17,97,B3,helmet,1,8*,6231.6034456,6398.6148447,167.0113991,0,0
2824,2@,1,61,12,41,52,31,22,Abstract_Concrete_6tasks_simseq_2seq_listtask_switchAB_fMRI,130785,12345,43152,3,18,98,A2,vest,2,2@,6231.6034456,6410.6154942,179.012048600001,0,0
1390,4$,1,62,11,41,52,31,21,Abstract_Concrete_6tasks_simseq_2seq_listtask_switchAB_fMRI,130785,12345,43152,3,19,99,B1,weapon,5,4$,6231.6034456,6420.6185959,189.015150300001,0,0
2763,7&,1,62,11,42,52,31,21,Abstract_Concrete_6tasks_simseq_2seq_listtask_switchAB_fMRI,130785,12345,43152,3,20,100,A5,tools,6,7&,6231.6034456,6429.6140772,198.0106316,0,0
1543,3#,1,62,12,42,52,31,22,Abstract_Concrete_6tasks_simseq_2seq_listtask_switchAB_fMRI,130785,12345,43152,3,21,101,B2,glasses,3,3#,6231.6034456,6439.6128812,208.0094356,0,0
1651,7&,1,61,11,41,51,31,22,Abstract_Concrete_6tasks_simseq_2seq_listtask_switchAB_fMRI,130785,12345,43152,3,22,102,A5,tools,6,7&,6231.6034456,6448.61461,217.0111644,0,0
2345,2@,1,61,12,42,51,31,22,Abstract_Concrete_6tasks_simseq_2seq_listtask_switchAB_fMRI,130785,12345,43152,3,23,103,B5,vest,2,2@,6231.6034456,6457.6144249,226.0109793,0,0
2079,2@,1,61,11,42,52,32,22,Abstract_Concrete_6tasks_simseq_2seq_listtask_switchAB_fMRI,130785,12345,43152,3,24,104,A2,vest,2,2@,6231.6034456,6467.6172499,236.013804300001,0,0
2286,3#,1,61,11,42,52,32,22,Abstract_Concrete_6tasks_simseq_2seq_listtask_switchAB_fMRI,130785,12345,43152,3,25,105,B2,glasses,3,3#,6231.6034456,6477.6150765,246.0116309,0,0
2329,8*,1,61,11,41,51,31,22,Abstract_Concrete_6tasks_simseq_2seq_listtask_switchAB_fMRI,130785,12345,43152,3,26,106,A1,helmet,1,8*,6231.6034456,6487.6164061,256.0129605,0,0
2124,3#,1,62,11,42,52,32,21,Abstract_Concrete_6tasks_simseq_2seq_listtask_switchAB_fMRI,130785,12345,43152,3,27,107,B2,glasses,3,3#,6231.6034456,6497.6156157,266.0121701,0,0
2013,3#,1,62,12,42,52,32,21,Abstract_Concrete_6tasks_simseq_2seq_listtask_switchAB_fMRI,130785,12345,43152,3,28,108,A3,glasses,3,3#,6231.6034456,6507.614643,276.0111974,0,0
2914,8*,1,62,11,42,51,32,21,Abstract_Concrete_6tasks_simseq_2seq_listtask_switchAB_fMRI,130785,12345,43152,3,29,109,B3,helmet,1,8*,6231.6034456,6517.6155479,286.0121023,0,0
1869,8*,1,62,11,42,51,32,22,Abstract_Concrete_6tasks_simseq_2seq_listtask_switchAB_fMRI,130785,12345,43152,3,30,110,A1,helmet,1,8*,6231.6034456,6527.6141611,296.010715500001,0,0
1395,4$,1,61,12,42,51,31,22,Abstract_Concrete_6tasks_simseq_2seq_listtask_switchAB_fMRI,130785,12345,43152,3,31,111,B1,weapon,5,4$,6231.6034456,6536.6137226,305.010277,0,0
2195,3#,1,61,12,42,52,32,21,Abstract_Concrete_6tasks_simseq_2seq_listtask_switchAB_fMRI,130785,12345,43152,3,32,112,A3,glasses,3,3#,6231.6034456,6545.6142505,314.0108049,0,0
3902,8*,1,62,12,41,51,31,22,Abstract_Concrete_6tasks_simseq_2seq_listtask_switchAB_fMRI,130785,12345,43152,3,33,113,B3,helmet,1,8*,6231.6034456,6555.615763,324.0123174,0,0
1890,2@,1,61,11,42,51,32,21,Abstract_Concrete_6tasks_simseq_2seq_listtask_switchAB_fMRI,130785,12345,43152,3,34,114,A2,vest,2,2@,6231.6034456,6566.6137073,335.0102617,0,0
1739,3#,1,61,11,41,51,31,22,Abstract_Concrete_6tasks_simseq_2seq_listtask_switchAB_fMRI,130785,12345,43152,3,35,115,B2,glasses,3,3#,6231.6034456,6575.6138496,344.010404000001,0,0
2752,4$,1,61,11,42,52,32,21,Abstract_Concrete_6tasks_simseq_2seq_listtask_switchAB_fMRI,130785,12345,43152,3,36,116,A4,weapon,5,4$,6231.6034456,6584.6142229,353.0107773,0,0
2403,7&,1,62,12,41,51,31,21,Abstract_Concrete_6tasks_simseq_2seq_listtask_switchAB_fMRI,130785,12345,43152,3,37,117,B4,tools,6,7&,6231.6034456,6594.6138646,363.010419,0,0
1905,3#,1,62,12,42,51,31,22,Abstract_Concrete_6tasks_simseq_2seq_listtask_switchAB_fMRI,130785,12345,43152,3,38,118,A3,glasses,3,3#,6231.6034456,6604.6146245,373.0111789,0,0
4222,8*,1,62,12,41,51,32,22,Abstract_Concrete_6tasks_simseq_2seq_listtask_switchAB_fMRI,130785,12345,43152,3,39,119,B3,helmet,1,8*,6231.6034456,6613.6145607,382.0111151,0,0
1773,4$,1,62,11,41,51,31,22,Abstract_Concrete_6tasks_simseq_2seq_listtask_switchAB_fMRI,130785,12345,43152,3,40,120,A4,weapon,5,4$,6231.6034456,6625.615251,394.0118054,0,0
3495,2@,1,62,11,42,52,31,21,Abstract_Concrete_6tasks_simseq_2seq_listtask_switchAB_fMRI,130785,12345,43152,4,1,121,A2,vest,2,2@,6814.3716747,6822.3830566,8.01138189999983,0,0
2944,3#,1,61,12,41,51,31,22,Abstract_Concrete_6tasks_simseq_2seq_listtask_switchAB_fMRI,130785,12345,43152,4,2,122,B2,glasses,3,3#,6814.3716747,6833.3822282,19.0105535000002,0,0
1552,2@,1,61,12,41,51,31,22,Abstract_Concrete_6tasks_simseq_2seq_listtask_switchAB_fMRI,130785,12345,43152,4,3,123,A2,vest,2,2@,6814.3716747,6843.3838511,29.0121764000005,0,0
2624,2@,1,61,12,41,52,32,22,Abstract_Concrete_6tasks_simseq_2seq_listtask_switchAB_fMRI,130785,12345,43152,4,4,124,B5,vest,2,2@,6814.3716747,6852.3834425,38.0117677999997,0,0
2776,4$,1,61,12,42,51,31,22,Abstract_Concrete_6tasks_simseq_2seq_listtask_switchAB_fMRI,130785,12345,43152,4,5,125,A4,weapon,5,4$,6814.3716747,6862.3826321,48.0109573999998,0,0
3178,8*,1,62,12,41,52,31,22,Abstract_Concrete_6tasks_simseq_2seq_listtask_switchAB_fMRI,130785,12345,43152,4,6,126,B3,helmet,1,8*,6814.3716747,6872.3834795,58.0118048000004,0,0
2040,8*,1,61,11,41,51,31,22,Abstract_Concrete_6tasks_simseq_2seq_listtask_switchAB_fMRI,130785,12345,43152,4,7,127,A1,helmet,1,8*,6814.3716747,6883.3848524,69.0131777000006,0,0
1478,4$,1,61,12,42,52,31,21,Abstract_Concrete_6tasks_simseq_2seq_listtask_switchAB_fMRI,130785,12345,43152,4,8,128,B1,weapon,5,4$,6814.3716747,6893.3835988,79.0119241000002,0,0
1592,4$,1,61,12,41,51,31,22,Abstract_Concrete_6tasks_simseq_2seq_listtask_switchAB_fMRI,130785,12345,43152,4,9,129,A4,weapon,5,4$,6814.3716747,6902.383549,88.0118743000003,0,0
4178,7&,1,62,11,41,52,31,21,Abstract_Concrete_6tasks_simseq_2seq_listtask_switchAB_fMRI,130785,12345,43152,4,10,130,B4,tools,6,7&,6814.3716747,6911.3829032,97.0112285000005,0,0
1829,8*,1,62,12,42,51,32,21,Abstract_Concrete_6tasks_simseq_2seq_listtask_switchAB_fMRI,130785,12345,43152,4,11,131,A1,helmet,1,8*,6814.3716747,6923.3827154,109.0110407,0,0
1539,2@,1,62,11,41,51,32,21,Abstract_Concrete_6tasks_simseq_2seq_listtask_switchAB_fMRI,130785,12345,43152,4,12,132,B5,vest,2,2@,6814.3716747,6932.3850006,118.0133259,0,0
2032,3#,1,61,11,42,52,31,22,Abstract_Concrete_6tasks_simseq_2seq_listtask_switchAB_fMRI,130785,12345,43152,4,13,133,A3,glasses,3,3#,6814.3716747,6941.3847334,127.0130587,0,0
4999,8*,1,62,12,41,52,31,22,Abstract_Concrete_6tasks_simseq_2seq_listtask_switchAB_fMRI,130785,12345,43152,4,14,134,B3,helmet,1,8*,6814.3716747,6951.3848288,137.0131541,0,0
2765,7&,1,62,12,42,52,31,21,Abstract_Concrete_6tasks_simseq_2seq_listtask_switchAB_fMRI,130785,12345,43152,4,15,135,A5,tools,6,7&,6814.3716747,6964.3839646,150.0122899,0,0
2843,7&,1,62,12,42,51,31,21,Abstract_Concrete_6tasks_simseq_2seq_listtask_switchAB_fMRI,130785,12345,43152,4,16,136,B4,tools,6,7&,6814.3716747,6974.3845169,160.0128422,0,0
1806,7&,1,61,12,41,52,31,21,Abstract_Concrete_6tasks_simseq_2seq_listtask_switchAB_fMRI,130785,12345,43152,4,17,137,A5,tools,6,7&,6814.3716747,6984.3839569,170.0122822,0,0
1184,3#,1,61,11,42,52,32,21,Abstract_Concrete_6tasks_simseq_2seq_listtask_switchAB_fMRI,130785,12345,43152,4,18,138,B2,glasses,3,3#,6814.3716747,6993.3843799,179.0127052,0,0
2058,4$,1,62,11,42,51,31,22,Abstract_Concrete_6tasks_simseq_2seq_listtask_switchAB_fMRI,130785,12345,43152,4,19,139,A4,weapon,5,4$,6814.3716747,7002.3861428,188.0144681,0,0
1512,4$,1,61,12,42,52,32,21,Abstract_Concrete_6tasks_simseq_2seq_listtask_switchAB_fMRI,130785,12345,43152,4,20,140,B1,weapon,5,4$,6814.3716747,7012.384205,198.0125303,0,0
4391,4$,1,61,12,41,51,32,21,Abstract_Concrete_6tasks_simseq_2seq_listtask_switchAB_fMRI,130785,12345,43152,4,21,141,A4,weapon,5,4$,6814.3716747,7021.3831741,207.011499400001,0,0
3577,7&,1,62,12,42,51,31,21,Abstract_Concrete_6tasks_simseq_2seq_listtask_switchAB_fMRI,130785,12345,43152,4,22,142,B4,tools,6,7&,6814.3716747,7033.3837517,219.012077,0,0
2262,2@,1,61,12,41,52,31,21,Abstract_Concrete_6tasks_simseq_2seq_listtask_switchAB_fMRI,130785,12345,43152,4,23,143,A2,vest,2,2@,6814.3716747,7044.382801,230.0111263,0,0
2489,4$,1,62,11,42,51,31,21,Abstract_Concrete_6tasks_simseq_2seq_listtask_switchAB_fMRI,130785,12345,43152,4,24,144,B1,weapon,5,4$,6814.3716747,7054.3844194,240.0127447,0,0
3172,3#,1,61,11,41,52,32,21,Abstract_Concrete_6tasks_simseq_2seq_listtask_switchAB_fMRI,130785,12345,43152,4,25,145,A3,glasses,3,3#,6814.3716747,7064.3831827,250.011508000001,0,0
1725,2@,1,62,12,42,52,31,21,Abstract_Concrete_6tasks_simseq_2seq_listtask_switchAB_fMRI,130785,12345,43152,4,26,146,B5,vest,2,2@,6814.3716747,7075.3825666,261.0108919,0,0
3705,3#,1,62,12,41,51,31,21,Abstract_Concrete_6tasks_simseq_2seq_listtask_switchAB_fMRI,130785,12345,43152,4,27,147,A3,glasses,3,3#,6814.3716747,7084.383395,270.0117203,0,0
2267,8*,1,61,11,41,51,32,21,Abstract_Concrete_6tasks_simseq_2seq_listtask_switchAB_fMRI,130785,12345,43152,4,28,148,B3,helmet,1,8*,6814.3716747,7095.3822194,281.010544700001,0,0
1565,8*,1,62,12,42,51,31,22,Abstract_Concrete_6tasks_simseq_2seq_listtask_switchAB_fMRI,130785,12345,43152,4,29,149,A1,helmet,1,8*,6814.3716747,7105.3856161,291.0139414,0,0
1657,7&,1,61,12,42,51,31,21,Abstract_Concrete_6tasks_simseq_2seq_listtask_switchAB_fMRI,130785,12345,43152,4,30,150,B4,tools,6,7&,6814.3716747,7114.3833713,300.011696600001,0,0
1953,8*,1,61,11,41,52,31,21,Abstract_Concrete_6tasks_simseq_2seq_listtask_switchAB_fMRI,130785,12345,43152,4,31,151,A1,helmet,1,8*,6814.3716747,7123.3833621,309.0116874,0,0
5320,8*,1,61,11,41,52,32,21,Abstract_Concrete_6tasks_simseq_2seq_listtask_switchAB_fMRI,130785,12345,43152,4,32,152,B3,helmet,1,8*,6814.3716747,7132.3829129,318.0112382,0,0
1703,2@,1,62,11,42,51,31,21,Abstract_Concrete_6tasks_simseq_2seq_listtask_switchAB_fMRI,130785,12345,43152,4,33,153,A2,vest,2,2@,6814.3716747,7145.3844955,331.012820800001,0,0
1652,3#,1,62,12,42,52,31,21,Abstract_Concrete_6tasks_simseq_2seq_listtask_switchAB_fMRI,130785,12345,43152,4,34,154,B2,glasses,3,3#,6814.3716747,7154.382911,340.0112363,0,0
2036,7&,1,61,12,41,52,31,21,Abstract_Concrete_6tasks_simseq_2seq_listtask_switchAB_fMRI,130785,12345,43152,4,35,155,A5,tools,6,7&,6814.3716747,7163.3821162,349.010441500001,0,0
2995,4$,1,62,12,41,51,31,22,Abstract_Concrete_6tasks_simseq_2seq_listtask_switchAB_fMRI,130785,12345,43152,4,36,156,B1,weapon,5,4$,6814.3716747,7173.3834344,359.0117597,0,0
2872,7&,1,61,11,41,51,32,21,Abstract_Concrete_6tasks_simseq_2seq_listtask_switchAB_fMRI,130785,12345,43152,4,37,157,A5,tools,6,7&,6814.3716747,7184.3825038,370.010829100001,0,0
1684,3#,1,61,12,41,52,31,22,Abstract_Concrete_6tasks_simseq_2seq_listtask_switchAB_fMRI,130785,12345,43152,4,38,158,B2,glasses,3,3#,6814.3716747,7194.382075,380.010400300001,0,0
2140,3#,1,62,11,42,51,32,22,Abstract_Concrete_6tasks_simseq_2seq_listtask_switchAB_fMRI,130785,12345,43152,4,39,159,A3,glasses,3,3#,6814.3716747,7203.3808078,389.0091331,0,0
3244,2@,1,61,11,42,52,32,21,Abstract_Concrete_6tasks_simseq_2seq_listtask_switchAB_fMRI,130785,12345,43152,4,40,160,B5,vest,2,2@,6814.3716747,7213.3826529,399.0109782,0,0
1442,8*,1,62,12,42,52,31,21,Abstract_Concrete_6tasks_simseq_2seq_listtask_switchAB_fMRI,130785,12345,43152,5,1,161,A1,helmet,1,8*,7260.1820052,7268.1923058,8.01030059999994,0,0
2139,7&,1,62,11,41,51,32,21,Abstract_Concrete_6tasks_simseq_2seq_listtask_switchAB_fMRI,130785,12345,43152,5,2,162,B4,tools,6,7&,7260.1820052,7277.1938614,17.0118561999998,0,0
3496,4$,1,61,11,41,52,31,22,Abstract_Concrete_6tasks_simseq_2seq_listtask_switchAB_fMRI,130785,12345,43152,5,3,163,A4,weapon,5,4$,7260.1820052,7287.1949187,27.0129134999997,0,0
1400,4$,1,61,11,41,51,31,21,Abstract_Concrete_6tasks_simseq_2seq_listtask_switchAB_fMRI,130785,12345,43152,5,4,164,B1,weapon,5,4$,7260.1820052,7298.1932273,38.0112220999999,0,0
1903,7&,1,62,11,41,51,32,21,Abstract_Concrete_6tasks_simseq_2seq_listtask_switchAB_fMRI,130785,12345,43152,5,5,165,A5,tools,6,7&,7260.1820052,7307.1950945,47.0130892999996,0,0
2457,8*,1,62,11,42,52,31,22,Abstract_Concrete_6tasks_simseq_2seq_listtask_switchAB_fMRI,130785,12345,43152,5,6,166,B3,helmet,1,8*,7260.1820052,7316.1939743,56.0119691,0,0
2685,2@,1,61,11,42,51,31,22,Abstract_Concrete_6tasks_simseq_2seq_listtask_switchAB_fMRI,130785,12345,43152,5,7,167,A2,vest,2,2@,7260.1820052,7326.1942765,66.0122713000001,0,0
3346,2@,1,61,11,42,51,32,22,Abstract_Concrete_6tasks_simseq_2seq_listtask_switchAB_fMRI,130785,12345,43152,5,8,168,B5,vest,2,2@,7260.1820052,7336.1952991,76.0132938999996,0,0
1946,3#,1,61,11,42,52,31,22,Abstract_Concrete_6tasks_simseq_2seq_listtask_switchAB_fMRI,130785,12345,43152,5,9,169,A3,glasses,3,3#,7260.1820052,7347.1933456,87.0113403999994,0,0
2149,2@,1,61,12,41,52,31,21,Abstract_Concrete_6tasks_simseq_2seq_listtask_switchAB_fMRI,130785,12345,43152,5,10,170,B5,vest,2,2@,7260.1820052,7356.1942771,96.0122719000001,0,0
2985,4$,1,61,11,42,51,32,22,Abstract_Concrete_6tasks_simseq_2seq_listtask_switchAB_fMRI,130785,12345,43152,5,11,171,A4,weapon,5,4$,7260.1820052,7366.1939987,106.011993499999,0,0
1882,3#,1,61,12,41,52,31,21,Abstract_Concrete_6tasks_simseq_2seq_listtask_switchAB_fMRI,130785,12345,43152,5,12,172,B2,glasses,3,3#,7260.1820052,7376.1950886,116.0130834,0,0
2224,8*,1,62,11,42,52,31,21,Abstract_Concrete_6tasks_simseq_2seq_listtask_switchAB_fMRI,130785,12345,43152,5,13,173,A1,helmet,1,8*,7260.1820052,7385.1949067,125.012901499999,0,0
1272,4$,1,61,11,41,52,32,22,Abstract_Concrete_6tasks_simseq_2seq_listtask_switchAB_fMRI,130785,12345,43152,5,14,174,B1,weapon,5,4$,7260.1820052,7395.194153,135.0121478,0,0
2663,4$,1,61,11,41,51,31,22,Abstract_Concrete_6tasks_simseq_2seq_listtask_switchAB_fMRI,130785,12345,43152,5,15,175,A4,weapon,5,4$,7260.1820052,7404.1941092,144.012103999999,0,0
1688,7&,1,61,12,41,52,31,22,Abstract_Concrete_6tasks_simseq_2seq_listtask_switchAB_fMRI,130785,12345,43152,5,16,176,B4,tools,6,7&,7260.1820052,7414.1941947,154.012189499999,0,0
1535,8*,1,62,12,42,51,31,21,Abstract_Concrete_6tasks_simseq_2seq_listtask_switchAB_fMRI,130785,12345,43152,5,17,177,A1,helmet,1,8*,7260.1820052,7423.1938034,163.0117982,0,0
1337,4$,1,61,12,41,51,32,22,Abstract_Concrete_6tasks_simseq_2seq_listtask_switchAB_fMRI,130785,12345,43152,5,18,178,B1,weapon,5,4$,7260.1820052,7432.1932759,172.0112707,0,0
2922,3#,1,62,12,42,51,32,22,Abstract_Concrete_6tasks_simseq_2seq_listtask_switchAB_fMRI,130785,12345,43152,5,19,179,A3,glasses,3,3#,7260.1820052,7441.1934089,181.011403699999,0,0
2332,2@,1,62,11,41,51,31,21,Abstract_Concrete_6tasks_simseq_2seq_listtask_switchAB_fMRI,130785,12345,43152,5,20,180,B5,vest,2,2@,7260.1820052,7451.1937278,191.011722599999,0,0
3043,7&,1,61,12,42,51,32,21,Abstract_Concrete_6tasks_simseq_2seq_listtask_switchAB_fMRI,130785,12345,43152,5,21,181,A5,tools,6,7&,7260.1820052,7461.1941442,201.012138999999,0,0
2945,8*,1,62,11,42,51,32,21,Abstract_Concrete_6tasks_simseq_2seq_listtask_switchAB_fMRI,130785,12345,43152,5,22,182,B3,helmet,1,8*,7260.1820052,7472.1960128,212.0140076,0,0
3260,2@,1,62,12,41,51,32,22,Abstract_Concrete_6tasks_simseq_2seq_listtask_switchAB_fMRI,130785,12345,43152,5,23,183,A2,vest,2,2@,7260.1820052,7482.1933309,222.011325699999,0,0
1476,3#,1,61,12,42,51,32,22,Abstract_Concrete_6tasks_simseq_2seq_listtask_switchAB_fMRI,130785,12345,43152,5,24,184,B2,glasses,3,3#,7260.1820052,7493.1926344,233.0106292,0,0
2043,2@,1,62,12,42,51,32,21,Abstract_Concrete_6tasks_simseq_2seq_listtask_switchAB_fMRI,130785,12345,43152,5,25,185,A2,vest,2,2@,7260.1820052,7502.1937589,242.0117537,0,0
1604,8*,1,61,12,41,51,32,22,Abstract_Concrete_6tasks_simseq_2seq_listtask_switchAB_fMRI,130785,12345,43152,5,26,186,B3,helmet,1,8*,7260.1820052,7512.1933992,252.011394,0,0
2091,8*,1,61,11,41,52,31,22,Abstract_Concrete_6tasks_simseq_2seq_listtask_switchAB_fMRI,130785,12345,43152,5,27,187,A1,helmet,1,8*,7260.1820052,7521.1942119,261.012206699999,0,0
2447,2@,1,61,12,42,51,32,22,Abstract_Concrete_6tasks_simseq_2seq_listtask_switchAB_fMRI,130785,12345,43152,5,28,188,B5,vest,2,2@,7260.1820052,7531.1926703,271.0106651,0,0
1950,4$,1,62,11,41,51,32,21,Abstract_Concrete_6tasks_simseq_2seq_listtask_switchAB_fMRI,130785,12345,43152,5,29,189,A4,weapon,5,4$,7260.1820052,7541.1925122,281.010507,0,0
944,4$,1,61,12,41,52,32,21,Abstract_Concrete_6tasks_simseq_2seq_listtask_switchAB_fMRI,130785,12345,43152,5,30,190,B1,weapon,5,4$,7260.1820052,7550.1925944,290.0105892,0,0
1606,7&,1,61,12,42,52,32,22,Abstract_Concrete_6tasks_simseq_2seq_listtask_switchAB_fMRI,130785,12345,43152,5,31,191,A5,tools,6,7&,7260.1820052,7558.1923415,298.0103363,0,0
2014,3#,1,62,11,41,52,32,22,Abstract_Concrete_6tasks_simseq_2seq_listtask_switchAB_fMRI,130785,12345,43152,5,32,192,B2,glasses,3,3#,7260.1820052,7567.1934458,307.011440599999,0,0
1878,2@,1,62,12,41,52,32,21,Abstract_Concrete_6tasks_simseq_2seq_listtask_switchAB_fMRI,130785,12345,43152,5,33,193,A2,vest,2,2@,7260.1820052,7577.1931589,317.011153699999,0,0
5271,7&,1,62,12,42,51,32,22,Abstract_Concrete_6tasks_simseq_2seq_listtask_switchAB_fMRI,130785,12345,43152,5,34,194,B4,tools,6,7&,7260.1820052,7586.1934236,326.011418399999,0,0
1357,3#,1,61,12,42,52,32,21,Abstract_Concrete_6tasks_simseq_2seq_listtask_switchAB_fMRI,130785,12345,43152,5,35,195,A3,glasses,3,3#,7260.1820052,7599.1939315,339.0119263,0,0
1198,3#,1,62,12,41,52,32,22,Abstract_Concrete_6tasks_simseq_2seq_listtask_switchAB_fMRI,130785,12345,43152,5,36,196,B2,glasses,3,3#,7260.1820052,7608.1949067,348.012901499999,0,0
1718,3#,1,61,12,42,52,31,21,Abstract_Concrete_6tasks_simseq_2seq_listtask_switchAB_fMRI,130785,12345,43152,5,37,197,A3,glasses,3,3#,7260.1820052,7617.1929741,357.0109689,0,0
3629,7&,1,61,11,41,52,32,22,Abstract_Concrete_6tasks_simseq_2seq_listtask_switchAB_fMRI,130785,12345,43152,5,38,198,B4,tools,6,7&,7260.1820052,7626.1923943,366.0103891,0,0
3382,7&,1,61,11,42,51,31,22,Abstract_Concrete_6tasks_simseq_2seq_listtask_switchAB_fMRI,130785,12345,43152,5,39,199,A5,tools,6,7&,7260.1820052,7637.1933982,377.011393,0,0
1580,8*,1,62,11,41,52,31,21,Abstract_Concrete_6tasks_simseq_2seq_listtask_switchAB_fMRI,130785,12345,43152,5,40,200,B3,helmet,1,8*,7260.1820052,7648.1947448,388.0127396,0,0
1406,4$,1,61,12,41,52,32,21,Abstract_Concrete_6tasks_simseq_2seq_listtask_switchAB_fMRI,130785,12345,43152,6,1,201,B1,weapon,5,4$,7691.9887489,7700.0019482,8.01319929999954,0,0
1580,7&,1,62,12,42,51,32,21,Abstract_Concrete_6tasks_simseq_2seq_listtask_switchAB_fMRI,130785,12345,43152,6,2,202,A5,tools,6,7&,7691.9887489,7709.000685,17.0119360999997,0,0
1719,7&,1,62,12,42,51,32,22,Abstract_Concrete_6tasks_simseq_2seq_listtask_switchAB_fMRI,130785,12345,43152,6,3,203,B4,tools,6,7&,7691.9887489,7718.000113,26.0113640999998,0,0
3169,4$,1,61,11,42,52,31,21,Abstract_Concrete_6tasks_simseq_2seq_listtask_switchAB_fMRI,130785,12345,43152,6,4,204,A4,weapon,5,4$,7691.9887489,7727.000184,35.0114351000002,0,0
995,7&,1,61,12,41,52,32,22,Abstract_Concrete_6tasks_simseq_2seq_listtask_switchAB_fMRI,130785,12345,43152,6,5,205,B4,tools,6,7&,7691.9887489,7738.0013821,46.0126332,0,0
1967,8*,1,61,11,42,52,31,21,Abstract_Concrete_6tasks_simseq_2seq_listtask_switchAB_fMRI,130785,12345,43152,6,6,206,A1,helmet,1,8*,7691.9887489,7747.0009658,55.0122168999997,0,0
1963,4$,1,62,11,42,52,31,22,Abstract_Concrete_6tasks_simseq_2seq_listtask_switchAB_fMRI,130785,12345,43152,6,7,207,B1,weapon,5,4$,7691.9887489,7755.999627,64.0108780999999,0,0
1460,8*,1,62,12,41,52,32,22,Abstract_Concrete_6tasks_simseq_2seq_listtask_switchAB_fMRI,130785,12345,43152,6,8,208,A1,helmet,1,8*,7691.9887489,7765.000606,73.0118570999994,0,0
1758,8*,1,62,11,42,51,31,21,Abstract_Concrete_6tasks_simseq_2seq_listtask_switchAB_fMRI,130785,12345,43152,6,9,209,B3,helmet,1,8*,7691.9887489,7774.0017866,82.0130376999996,0,0
2001,8*,1,61,11,41,52,32,21,Abstract_Concrete_6tasks_simseq_2seq_listtask_switchAB_fMRI,130785,12345,43152,6,10,210,A1,helmet,1,8*,7691.9887489,7783.0016676,91.0129186999993,0,0
6871,2@,1,62,11,41,52,32,22,Abstract_Concrete_6tasks_simseq_2seq_listtask_switchAB_fMRI,130785,12345,43152,6,11,211,B5,vest,2,2@,7691.9887489,7793.0011179,101.012369,0,0
1789,7&,1,62,11,41,51,32,22,Abstract_Concrete_6tasks_simseq_2seq_listtask_switchAB_fMRI,130785,12345,43152,6,12,212,A5,tools,6,7&,7691.9887489,7806.9993089,115.01056,0,0
1167,8*,1,62,12,42,52,31,21,Abstract_Concrete_6tasks_simseq_2seq_listtask_switchAB_fMRI,130785,12345,43152,6,13,213,B3,helmet,1,8*,7691.9887489,7816.001063,124.012314099999,0,0
1698,2@,1,61,12,42,52,32,22,Abstract_Concrete_6tasks_simseq_2seq_listtask_switchAB_fMRI,130785,12345,43152,6,14,214,A2,vest,2,2@,7691.9887489,7825.0021039,133.013355,0,0
1933,8*,1,61,11,41,51,32,21,Abstract_Concrete_6tasks_simseq_2seq_listtask_switchAB_fMRI,130785,12345,43152,6,15,215,B3,helmet,1,8*,7691.9887489,7834.0022409,142.013492,0,0
2513,7&,1,61,12,41,52,31,21,Abstract_Concrete_6tasks_simseq_2seq_listtask_switchAB_fMRI,130785,12345,43152,6,16,216,A5,tools,6,7&,7691.9887489,7843.0017335,151.0129846,0,0
2339,2@,1,61,11,42,52,31,22,Abstract_Concrete_6tasks_simseq_2seq_listtask_switchAB_fMRI,130785,12345,43152,6,17,217,B5,vest,2,2@,7691.9887489,7853.0010645,161.0123156,0,0
2490,3#,1,62,11,42,52,32,22,Abstract_Concrete_6tasks_simseq_2seq_listtask_switchAB_fMRI,130785,12345,43152,6,18,218,A3,glasses,3,3#,7691.9887489,7863.0002139,171.011465,0,0
1869,3#,1,61,11,42,51,32,21,Abstract_Concrete_6tasks_simseq_2seq_listtask_switchAB_fMRI,130785,12345,43152,6,19,219,B2,glasses,3,3#,7691.9887489,7873.0012587,181.0125098,0,0
1762,4$,1,62,12,41,51,32,22,Abstract_Concrete_6tasks_simseq_2seq_listtask_switchAB_fMRI,130785,12345,43152,6,20,220,A4,weapon,5,4$,7691.9887489,7882.0003207,190.0115718,0,0
1731,7&,1,61,12,42,51,31,22,Abstract_Concrete_6tasks_simseq_2seq_listtask_switchAB_fMRI,130785,12345,43152,6,21,221,B4,tools,6,7&,7691.9887489,7891.0005062,199.0117573,0,0
3127,2@,1,61,11,42,51,31,22,Abstract_Concrete_6tasks_simseq_2seq_listtask_switchAB_fMRI,130785,12345,43152,6,22,222,A2,vest,2,2@,7691.9887489,7900.0019727,208.0132238,0,0
1459,8*,1,62,11,41,51,31,21,Abstract_Concrete_6tasks_simseq_2seq_listtask_switchAB_fMRI,130785,12345,43152,6,23,223,B3,helmet,1,8*,7691.9887489,7911.0024773,219.013728399999,0,0
1774,2@,1,61,11,42,51,32,22,Abstract_Concrete_6tasks_simseq_2seq_listtask_switchAB_fMRI,130785,12345,43152,6,24,224,A2,vest,2,2@,7691.9887489,7920.0028645,228.0141156,0,0
2548,2@,1,62,11,42,52,32,21,Abstract_Concrete_6tasks_simseq_2seq_listtask_switchAB_fMRI,130785,12345,43152,6,25,225,B5,vest,2,2@,7691.9887489,7928.9989063,237.0101574,0,0
1573,7&,1,62,12,41,51,31,21,Abstract_Concrete_6tasks_simseq_2seq_listtask_switchAB_fMRI,130785,12345,43152,6,26,226,A5,tools,6,7&,7691.9887489,7938.9990715,247.0103226,0,0
2389,3#,1,62,12,41,51,31,21,Abstract_Concrete_6tasks_simseq_2seq_listtask_switchAB_fMRI,130785,12345,43152,6,27,227,B2,glasses,3,3#,7691.9887489,7947.9995398,256.0107909,0,0
1951,3#,1,61,12,42,51,31,21,Abstract_Concrete_6tasks_simseq_2seq_listtask_switchAB_fMRI,130785,12345,43152,6,28,228,A3,glasses,3,3#,7691.9887489,7957.9992548,266.0105059,0,0
1901,4$,1,62,12,42,52,31,22,Abstract_Concrete_6tasks_simseq_2seq_listtask_switchAB_fMRI,130785,12345,43152,6,29,229,B1,weapon,5,4$,7691.9887489,7967.0008827,275.0121338,0,0
1825,8*,1,61,11,42,52,31,21,Abstract_Concrete_6tasks_simseq_2seq_listtask_switchAB_fMRI,130785,12345,43152,6,30,230,A1,helmet,1,8*,7691.9887489,7976.0000862,284.011337299999,0,0
1187,7&,1,61,11,41,52,31,22,Abstract_Concrete_6tasks_simseq_2seq_listtask_switchAB_fMRI,130785,12345,43152,6,31,231,B4,tools,6,7&,7691.9887489,7985.0011146,293.012365699999,0,0
2216,4$,1,62,11,41,51,31,22,Abstract_Concrete_6tasks_simseq_2seq_listtask_switchAB_fMRI,130785,12345,43152,6,32,232,A4,weapon,5,4$,7691.9887489,7994.0023784,302.0136295,0,0
1476,3#,1,62,11,42,51,32,21,Abstract_Concrete_6tasks_simseq_2seq_listtask_switchAB_fMRI,130785,12345,43152,6,33,233,B2,glasses,3,3#,7691.9887489,8004.0016107,312.0128618,0,0
4154,3#,1,61,12,41,52,32,21,Abstract_Concrete_6tasks_simseq_2seq_listtask_switchAB_fMRI,130785,12345,43152,6,34,234,A3,glasses,3,3#,7691.9887489,8013.0010869,321.012338,0,0
1862,3#,1,62,12,41,52,32,21,Abstract_Concrete_6tasks_simseq_2seq_listtask_switchAB_fMRI,130785,12345,43152,6,35,235,B2,glasses,3,3#,7691.9887489,8025.001546,333.0127971,0,0
3254,3#,1,62,12,42,51,32,21,Abstract_Concrete_6tasks_simseq_2seq_listtask_switchAB_fMRI,130785,12345,43152,6,36,236,A3,glasses,3,3#,7691.9887489,8033.9991667,342.0104178,0,0
2635,2@,1,61,12,41,51,31,21,Abstract_Concrete_6tasks_simseq_2seq_listtask_switchAB_fMRI,130785,12345,43152,6,37,237,B5,vest,2,2@,7691.9887489,8045.0008566,353.012107699999,0,0
3125,4$,1,61,12,41,52,31,22,Abstract_Concrete_6tasks_simseq_2seq_listtask_switchAB_fMRI,130785,12345,43152,6,38,238,A4,weapon,5,4$,7691.9887489,8055.0012969,363.012548,0,0
1260,4$,1,62,11,42,51,32,22,Abstract_Concrete_6tasks_simseq_2seq_listtask_switchAB_fMRI,130785,12345,43152,6,39,239,B1,weapon,5,4$,7691.9887489,8066.0020475,374.0132986,0,0
2131,2@,1,61,11,42,51,32,21,Abstract_Concrete_6tasks_simseq_2seq_listtask_switchAB_fMRI,130785,12345,43152,6,40,240,A2,vest,2,2@,7691.9887489,8075.0004872,383.0117383,0,0
