rt1,resp1,correct1,features_1,features_2,features_3,features_4,features_5,features_6,ExpName,subNo,seqA,seqB,block,trial,trialnum,cuetype,task,subtaskcode,corr_resp1,onsetTime_s,onsetTime_cue,onset_cue,onsetTime_cue_fb,onset_cue_fb
6075,9(,1,11,21,51,62,32,41,Abstract_Concrete_6tasks_simseq_2seq_listtask_switchAB_fMRI,142464,25413,14235,1,1,1,B2,weapon,5,9(,3077.1218653,3085.1321484,8.01028309999992,0,0
0,,0,11,21,52,61,32,42,Abstract_Concrete_6tasks_simseq_2seq_listtask_switchAB_fMRI,142464,25413,14235,1,2,2,A5,glasses,3,3#,3077.1218653,3099.135047,22.0131817000001,3108.1783233,31.056458
5058,8*,0,11,21,52,62,31,42,Abstract_Concrete_6tasks_simseq_2seq_listtask_switchAB_fMRI,142464,25413,14235,1,3,3,B4,glasses,3,3#,3077.1218653,3116.1315632,39.0096979,3121.2125341,44.0906688
5067,4$,1,11,21,52,61,32,41,Abstract_Concrete_6tasks_simseq_2seq_listtask_switchAB_fMRI,142464,25413,14235,1,4,4,A2,tools,6,4$,3077.1218653,3129.1317388,52.0098735000001,0,0
4197,3#,1,12,21,52,61,31,42,Abstract_Concrete_6tasks_simseq_2seq_listtask_switchAB_fMRI,142464,25413,14235,1,5,5,B4,glasses,3,3#,3077.1218653,3142.1345681,65.0127027999997,0,0
4544,3#,1,11,22,52,62,31,42,Abstract_Concrete_6tasks_simseq_2seq_listtask_switchAB_fMRI,142464,25413,14235,1,6,6,A5,glasses,3,3#,3077.1218653,3154.1330943,77.0112289999997,0,0
2188,7&,1,12,21,52,61,31,41,Abstract_Concrete_6tasks_simseq_2seq_listtask_switchAB_fMRI,142464,25413,14235,1,7,7,B1,helmet,1,7&,3077.1218653,3166.1331025,89.0112371999999,0,0
1701,3#,1,11,22,52,61,32,42,Abstract_Concrete_6tasks_simseq_2seq_listtask_switchAB_fMRI,142464,25413,14235,1,8,8,A5,glasses,3,3#,3077.1218653,3176.1339641,99.0120987999999,0,0
3610,7&,0,12,21,52,61,32,41,Abstract_Concrete_6tasks_simseq_2seq_listtask_switchAB_fMRI,142464,25413,14235,1,9,9,B5,tools,6,4$,3077.1218653,3185.1336302,108.0117649,3188.7558765,111.6340112
5925,9(,1,12,21,52,62,32,42,Abstract_Concrete_6tasks_simseq_2seq_listtask_switchAB_fMRI,142464,25413,14235,1,10,10,A3,weapon,5,9(,3077.1218653,3196.1343641,119.0124988,0,0
1518,7&,1,11,21,52,61,32,41,Abstract_Concrete_6tasks_simseq_2seq_listtask_switchAB_fMRI,142464,25413,14235,1,11,11,B1,helmet,1,7&,3077.1218653,3209.1334921,132.0116268,0,0
3523,9(,1,12,22,52,62,32,41,Abstract_Concrete_6tasks_simseq_2seq_listtask_switchAB_fMRI,142464,25413,14235,1,12,12,A3,weapon,5,9(,3077.1218653,3218.1337787,141.0119134,0,0
2878,9(,1,11,21,51,62,32,41,Abstract_Concrete_6tasks_simseq_2seq_listtask_switchAB_fMRI,142464,25413,14235,1,13,13,B2,weapon,5,9(,3077.1218653,3229.1338876,152.0120223,0,0
3143,7&,1,12,22,51,61,32,41,Abstract_Concrete_6tasks_simseq_2seq_listtask_switchAB_fMRI,142464,25413,14235,1,14,14,A4,helmet,1,7&,3077.1218653,3239.1343666,162.0125013,0,0
1504,7&,1,11,22,52,62,32,42,Abstract_Concrete_6tasks_simseq_2seq_listtask_switchAB_fMRI,142464,25413,14235,1,15,15,B1,helmet,1,7&,3077.1218653,3250.1354923,173.013627,0,0
2864,7&,1,12,22,51,62,31,42,Abstract_Concrete_6tasks_simseq_2seq_listtask_switchAB_fMRI,142464,25413,14235,1,16,16,A4,helmet,1,7&,3077.1218653,3259.1338661,182.0120008,0,0
4049,3#,1,12,21,52,61,32,42,Abstract_Concrete_6tasks_simseq_2seq_listtask_switchAB_fMRI,142464,25413,14235,1,17,17,B4,glasses,3,3#,3077.1218653,3269.1344938,192.0126285,0,0
4204,8*,1,11,22,51,62,31,42,Abstract_Concrete_6tasks_simseq_2seq_listtask_switchAB_fMRI,142464,25413,14235,1,18,18,A1,vest,2,8*,3077.1218653,3281.1349759,204.0131106,0,0
2521,9(,1,11,21,52,61,31,42,Abstract_Concrete_6tasks_simseq_2seq_listtask_switchAB_fMRI,142464,25413,14235,1,19,19,B2,weapon,5,9(,3077.1218653,3293.1353329,216.0134676,0,0
4053,9(,1,11,21,52,61,32,41,Abstract_Concrete_6tasks_simseq_2seq_listtask_switchAB_fMRI,142464,25413,14235,1,20,20,A3,weapon,5,9(,3077.1218653,3303.1338526,226.0119873,0,0
3992,7&,0,11,21,52,62,32,41,Abstract_Concrete_6tasks_simseq_2seq_listtask_switchAB_fMRI,142464,25413,14235,1,21,21,B5,tools,6,4$,3077.1218653,3315.1353507,238.0134854,3319.139698,242.0178327
1807,3#,1,11,21,51,61,32,42,Abstract_Concrete_6tasks_simseq_2seq_listtask_switchAB_fMRI,142464,25413,14235,1,22,22,A5,glasses,3,3#,3077.1218653,3327.1320057,250.0101404,0,0
2364,4$,1,12,21,51,62,31,42,Abstract_Concrete_6tasks_simseq_2seq_listtask_switchAB_fMRI,142464,25413,14235,1,23,23,B5,tools,6,4$,3077.1218653,3336.1316066,259.0097413,0,0
4551,7&,1,11,21,52,62,31,41,Abstract_Concrete_6tasks_simseq_2seq_listtask_switchAB_fMRI,142464,25413,14235,1,24,24,A4,helmet,1,7&,3077.1218653,3346.1349288,269.0130635,0,0
2119,9(,1,11,21,51,62,32,41,Abstract_Concrete_6tasks_simseq_2seq_listtask_switchAB_fMRI,142464,25413,14235,1,25,25,B2,weapon,5,9(,3077.1218653,3358.1323355,281.0104702,0,0
4019,4$,1,11,22,52,62,31,41,Abstract_Concrete_6tasks_simseq_2seq_listtask_switchAB_fMRI,142464,25413,14235,1,26,26,A2,tools,6,4$,3077.1218653,3368.1354981,291.0136328,0,0
3885,8*,1,12,21,51,62,31,42,Abstract_Concrete_6tasks_simseq_2seq_listtask_switchAB_fMRI,142464,25413,14235,1,27,27,B3,vest,2,8*,3077.1218653,3380.1334199,303.0115546,0,0
4331,7&,1,11,22,52,61,32,42,Abstract_Concrete_6tasks_simseq_2seq_listtask_switchAB_fMRI,142464,25413,14235,1,28,28,A4,helmet,1,7&,3077.1218653,3391.1330314,314.0111661,0,0
1599,7&,1,12,21,52,62,32,42,Abstract_Concrete_6tasks_simseq_2seq_listtask_switchAB_fMRI,142464,25413,14235,1,29,29,B1,helmet,1,7&,3077.1218653,3403.1389212,326.0170559,0,0
1355,8*,1,12,22,51,61,32,42,Abstract_Concrete_6tasks_simseq_2seq_listtask_switchAB_fMRI,142464,25413,14235,1,30,30,A1,vest,2,8*,3077.1218653,3412.1332224,335.0113571,0,0
5990,3#,1,12,21,52,61,32,41,Abstract_Concrete_6tasks_simseq_2seq_listtask_switchAB_fMRI,142464,25413,14235,1,31,31,B4,glasses,3,3#,3077.1218653,3421.1346355,344.0127702,0,0
2943,9(,1,12,22,52,62,32,42,Abstract_Concrete_6tasks_simseq_2seq_listtask_switchAB_fMRI,142464,25413,14235,1,32,32,A3,weapon,5,9(,3077.1218653,3435.1355774,358.0137121,0,0
2673,8*,1,11,22,51,62,32,41,Abstract_Concrete_6tasks_simseq_2seq_listtask_switchAB_fMRI,142464,25413,14235,1,33,33,B3,vest,2,8*,3077.1218653,3445.1322314,368.0103661,0,0
2769,4$,1,12,21,51,62,31,41,Abstract_Concrete_6tasks_simseq_2seq_listtask_switchAB_fMRI,142464,25413,14235,1,34,34,A2,tools,6,4$,3077.1218653,3455.1334332,378.0115679,0,0
2944,8*,1,12,21,51,61,31,42,Abstract_Concrete_6tasks_simseq_2seq_listtask_switchAB_fMRI,142464,25413,14235,1,35,35,B3,vest,2,8*,3077.1218653,3465.1309417,388.0090764,0,0
1394,8*,1,11,21,52,62,32,42,Abstract_Concrete_6tasks_simseq_2seq_listtask_switchAB_fMRI,142464,25413,14235,1,36,36,A1,vest,2,8*,3077.1218653,3475.1319868,398.0101215,0,0
3762,4$,1,11,21,51,61,32,41,Abstract_Concrete_6tasks_simseq_2seq_listtask_switchAB_fMRI,142464,25413,14235,1,37,37,B5,tools,6,4$,3077.1218653,3484.1321484,407.0102831,0,0
991,8*,1,11,22,52,61,31,41,Abstract_Concrete_6tasks_simseq_2seq_listtask_switchAB_fMRI,142464,25413,14235,1,38,38,A1,vest,2,8*,3077.1218653,3495.1323012,418.0104359,0,0
2134,8*,1,11,21,52,62,31,41,Abstract_Concrete_6tasks_simseq_2seq_listtask_switchAB_fMRI,142464,25413,14235,1,39,39,B3,vest,2,8*,3077.1218653,3504.1350069,427.0131416,0,0
2533,4$,1,12,22,51,61,32,41,Abstract_Concrete_6tasks_simseq_2seq_listtask_switchAB_fMRI,142464,25413,14235,1,40,40,A2,tools,6,4$,3077.1218653,3514.1337402,437.0118749,0,0
4631,3#,1,11,21,52,62,32,41,Abstract_Concrete_6tasks_simseq_2seq_listtask_switchAB_fMRI,142464,25413,14235,2,1,41,B4,glasses,3,3#,3563.2742643,3571.2835648,8.00930049999988,0,0
1436,8*,1,11,21,51,62,32,41,Abstract_Concrete_6tasks_simseq_2seq_listtask_switchAB_fMRI,142464,25413,14235,2,2,42,A1,vest,2,8*,3563.2742643,3583.2840806,20.0098162999998,0,0
2694,9(,1,11,22,52,62,32,42,Abstract_Concrete_6tasks_simseq_2seq_listtask_switchAB_fMRI,142464,25413,14235,2,3,43,B2,weapon,5,9(,3563.2742643,3592.2879689,29.0137046,0,0
3335,4$,1,12,22,51,61,31,41,Abstract_Concrete_6tasks_simseq_2seq_listtask_switchAB_fMRI,142464,25413,14235,2,4,44,A2,tools,6,4$,3563.2742643,3602.286109,39.0118447,0,0
2610,8*,1,12,21,52,62,32,42,Abstract_Concrete_6tasks_simseq_2seq_listtask_switchAB_fMRI,142464,25413,14235,2,5,45,B3,vest,2,8*,3563.2742643,3613.2852021,50.0109377999997,0,0
4049,7&,1,12,22,51,61,31,42,Abstract_Concrete_6tasks_simseq_2seq_listtask_switchAB_fMRI,142464,25413,14235,2,6,46,A4,helmet,1,7&,3563.2742643,3623.2853598,60.0110955,0,0
1848,8*,1,12,22,52,62,31,42,Abstract_Concrete_6tasks_simseq_2seq_listtask_switchAB_fMRI,142464,25413,14235,2,7,47,B3,vest,2,8*,3563.2742643,3635.2882073,72.0139429999999,0,0
2598,4$,1,12,21,52,61,32,41,Abstract_Concrete_6tasks_simseq_2seq_listtask_switchAB_fMRI,142464,25413,14235,2,8,48,A2,tools,6,4$,3563.2742643,3644.2849378,81.0106734999999,0,0
3606,4$,1,11,21,51,61,31,41,Abstract_Concrete_6tasks_simseq_2seq_listtask_switchAB_fMRI,142464,25413,14235,2,9,49,B5,tools,6,4$,3563.2742643,3654.2867969,91.0125325999998,0,0
3061,7&,1,11,21,51,61,31,42,Abstract_Concrete_6tasks_simseq_2seq_listtask_switchAB_fMRI,142464,25413,14235,2,10,50,A4,helmet,1,7&,3563.2742643,3665.286514,102.0122497,0,0
1730,8*,1,11,22,52,62,32,42,Abstract_Concrete_6tasks_simseq_2seq_listtask_switchAB_fMRI,142464,25413,14235,2,11,51,B3,vest,2,8*,3563.2742643,3676.288443,113.0141787,0,0
3328,4$,1,12,22,52,61,31,42,Abstract_Concrete_6tasks_simseq_2seq_listtask_switchAB_fMRI,142464,25413,14235,2,12,52,A2,tools,6,4$,3563.2742643,3685.2858819,122.0116176,0,0
3925,4$,1,12,21,52,62,31,41,Abstract_Concrete_6tasks_simseq_2seq_listtask_switchAB_fMRI,142464,25413,14235,2,13,53,B5,tools,6,4$,3563.2742643,3696.2876558,133.0133915,0,0
1609,8*,1,11,22,51,62,31,42,Abstract_Concrete_6tasks_simseq_2seq_listtask_switchAB_fMRI,142464,25413,14235,2,14,54,A1,vest,2,8*,3563.2742643,3707.28627,144.0120057,0,0
2120,7&,1,12,22,52,62,31,42,Abstract_Concrete_6tasks_simseq_2seq_listtask_switchAB_fMRI,142464,25413,14235,2,15,55,B1,helmet,1,7&,3563.2742643,3716.2885857,153.0143214,0,0
1499,8*,1,11,21,52,61,31,42,Abstract_Concrete_6tasks_simseq_2seq_listtask_switchAB_fMRI,142464,25413,14235,2,16,56,A1,vest,2,8*,3563.2742643,3726.286401,163.0121367,0,0
2191,9(,1,11,21,52,62,31,42,Abstract_Concrete_6tasks_simseq_2seq_listtask_switchAB_fMRI,142464,25413,14235,2,17,57,B2,weapon,5,9(,3563.2742643,3735.2879029,172.0136386,0,0
2197,3#,1,11,22,52,62,32,42,Abstract_Concrete_6tasks_simseq_2seq_listtask_switchAB_fMRI,142464,25413,14235,2,18,58,A5,glasses,3,3#,3563.2742643,3745.2885099,182.0142456,0,0
1699,9(,1,11,22,51,61,31,41,Abstract_Concrete_6tasks_simseq_2seq_listtask_switchAB_fMRI,142464,25413,14235,2,19,59,B2,weapon,5,9(,3563.2742643,3755.2864173,192.012153,0,0
2900,9(,1,11,21,51,62,31,41,Abstract_Concrete_6tasks_simseq_2seq_listtask_switchAB_fMRI,142464,25413,14235,2,20,60,A3,weapon,5,9(,3563.2742643,3764.2853921,201.0111278,0,0
1391,7&,1,11,22,51,62,32,42,Abstract_Concrete_6tasks_simseq_2seq_listtask_switchAB_fMRI,142464,25413,14235,2,21,61,B1,helmet,1,7&,3563.2742643,3774.2843044,211.0100401,0,0
3497,4$,1,12,21,51,62,32,42,Abstract_Concrete_6tasks_simseq_2seq_listtask_switchAB_fMRI,142464,25413,14235,2,22,62,A2,tools,6,4$,3563.2742643,3783.2871439,220.0128796,0,0
3807,3#,1,12,22,52,61,31,42,Abstract_Concrete_6tasks_simseq_2seq_listtask_switchAB_fMRI,142464,25413,14235,2,23,63,B4,glasses,3,3#,3563.2742643,3794.2866501,231.0123858,0,0
1937,9(,1,12,22,52,62,31,41,Abstract_Concrete_6tasks_simseq_2seq_listtask_switchAB_fMRI,142464,25413,14235,2,24,64,A3,weapon,5,9(,3563.2742643,3805.2853142,242.0110499,0,0
3528,3#,1,11,21,51,62,32,41,Abstract_Concrete_6tasks_simseq_2seq_listtask_switchAB_fMRI,142464,25413,14235,2,25,65,B4,glasses,3,3#,3563.2742643,3814.285862,251.0115977,0,0
2457,9(,1,11,22,52,61,31,42,Abstract_Concrete_6tasks_simseq_2seq_listtask_switchAB_fMRI,142464,25413,14235,2,26,66,A3,weapon,5,9(,3563.2742643,3825.2854158,262.0111515,0,0
1872,3#,1,11,22,51,61,32,41,Abstract_Concrete_6tasks_simseq_2seq_listtask_switchAB_fMRI,142464,25413,14235,2,27,67,B4,glasses,3,3#,3563.2742643,3835.2848745,272.0106102,0,0
2217,3#,1,11,21,52,61,32,41,Abstract_Concrete_6tasks_simseq_2seq_listtask_switchAB_fMRI,142464,25413,14235,2,28,68,A5,glasses,3,3#,3563.2742643,3844.2849173,281.010653,0,0
3299,8*,1,12,21,52,61,31,42,Abstract_Concrete_6tasks_simseq_2seq_listtask_switchAB_fMRI,142464,25413,14235,2,29,69,B3,vest,2,8*,3563.2742643,3854.2856486,291.0113843,0,0
2182,4$,0,12,21,52,61,31,42,Abstract_Concrete_6tasks_simseq_2seq_listtask_switchAB_fMRI,142464,25413,14235,2,30,70,A5,glasses,3,3#,3563.2742643,3865.2868448,302.0125805,3867.4840809,304.2098166
2406,4$,1,12,21,52,62,31,41,Abstract_Concrete_6tasks_simseq_2seq_listtask_switchAB_fMRI,142464,25413,14235,2,31,71,B5,tools,6,4$,3563.2742643,3875.2861938,312.0119295,0,0
3079,4$,0,11,21,52,61,32,42,Abstract_Concrete_6tasks_simseq_2seq_listtask_switchAB_fMRI,142464,25413,14235,2,32,72,A4,helmet,1,7&,3563.2742643,3885.2859329,322.0116686,3888.3789628,325.1046985
1586,7&,1,11,21,51,61,32,42,Abstract_Concrete_6tasks_simseq_2seq_listtask_switchAB_fMRI,142464,25413,14235,2,33,73,B1,helmet,1,7&,3563.2742643,3896.28491,333.0106457,0,0
2602,7&,1,12,22,52,62,31,42,Abstract_Concrete_6tasks_simseq_2seq_listtask_switchAB_fMRI,142464,25413,14235,2,34,74,A4,helmet,1,7&,3563.2742643,3905.2855751,342.0113108,0,0
2768,9(,1,11,21,52,61,32,41,Abstract_Concrete_6tasks_simseq_2seq_listtask_switchAB_fMRI,142464,25413,14235,2,35,75,B2,weapon,5,9(,3563.2742643,3915.2852102,352.0109459,0,0
4094,3#,1,11,22,52,62,32,42,Abstract_Concrete_6tasks_simseq_2seq_listtask_switchAB_fMRI,142464,25413,14235,2,36,76,A5,glasses,3,3#,3563.2742643,3925.2868571,362.0125928,0,0
1449,7&,1,12,22,52,61,31,42,Abstract_Concrete_6tasks_simseq_2seq_listtask_switchAB_fMRI,142464,25413,14235,2,37,77,B1,helmet,1,7&,3563.2742643,3937.2851037,374.0108394,0,0
2159,9(,1,11,21,51,62,31,41,Abstract_Concrete_6tasks_simseq_2seq_listtask_switchAB_fMRI,142464,25413,14235,2,38,78,A3,weapon,5,9(,3563.2742643,3946.2860812,383.0118169,0,0
4354,3#,0,11,21,52,62,31,42,Abstract_Concrete_6tasks_simseq_2seq_listtask_switchAB_fMRI,142464,25413,14235,2,39,79,B5,tools,6,4$,3563.2742643,3956.2872727,393.0130084,3960.6553386,397.3810743
1865,8*,1,11,21,51,61,32,41,Abstract_Concrete_6tasks_simseq_2seq_listtask_switchAB_fMRI,142464,25413,14235,2,40,80,A1,vest,2,8*,3563.2742643,3968.2848079,405.0105436,0,0
3955,3#,1,12,21,52,62,32,42,Abstract_Concrete_6tasks_simseq_2seq_listtask_switchAB_fMRI,142464,25413,14235,3,1,81,A5,glasses,3,3#,4016.8607352,4024.8710605,8.0103253000002,0,0
1646,7&,1,12,21,51,61,32,42,Abstract_Concrete_6tasks_simseq_2seq_listtask_switchAB_fMRI,142464,25413,14235,3,2,82,B1,helmet,1,7&,4016.8607352,4035.8710851,19.0103499000002,0,0
1358,8*,1,12,21,52,62,31,41,Abstract_Concrete_6tasks_simseq_2seq_listtask_switchAB_fMRI,142464,25413,14235,3,3,83,A1,vest,2,8*,4016.8607352,4044.8720183,28.0112831000001,0,0
3588,3#,1,12,22,52,61,32,42,Abstract_Concrete_6tasks_simseq_2seq_listtask_switchAB_fMRI,142464,25413,14235,3,4,84,B4,glasses,3,3#,4016.8607352,4053.8743179,37.0135826999999,0,0
3153,4$,1,12,22,52,61,31,41,Abstract_Concrete_6tasks_simseq_2seq_listtask_switchAB_fMRI,142464,25413,14235,3,5,85,A2,tools,6,4$,4016.8607352,4064.8747218,48.0139866,0,0
2134,9(,1,11,21,51,62,32,41,Abstract_Concrete_6tasks_simseq_2seq_listtask_switchAB_fMRI,142464,25413,14235,3,6,86,B2,weapon,5,9(,4016.8607352,4075.8727332,59.0119979999999,0,0
1998,8*,1,12,22,52,61,32,41,Abstract_Concrete_6tasks_simseq_2seq_listtask_switchAB_fMRI,142464,25413,14235,3,7,87,A1,vest,2,8*,4016.8607352,4085.8734555,69.0127203000002,0,0
2699,3#,1,12,21,52,62,31,41,Abstract_Concrete_6tasks_simseq_2seq_listtask_switchAB_fMRI,142464,25413,14235,3,8,88,B4,glasses,3,3#,4016.8607352,4095.8753239,79.0145886999999,0,0
1317,8*,1,11,22,51,62,31,42,Abstract_Concrete_6tasks_simseq_2seq_listtask_switchAB_fMRI,142464,25413,14235,3,9,89,A1,vest,2,8*,4016.8607352,4105.8724776,89.0117424,0,0
2168,9(,1,12,21,52,62,31,42,Abstract_Concrete_6tasks_simseq_2seq_listtask_switchAB_fMRI,142464,25413,14235,3,10,90,B2,weapon,5,9(,4016.8607352,4114.8723105,98.0115753,0,0
2290,4$,1,12,21,52,61,32,41,Abstract_Concrete_6tasks_simseq_2seq_listtask_switchAB_fMRI,142464,25413,14235,3,11,91,A2,tools,6,4$,4016.8607352,4124.8745969,108.0138617,0,0
2353,3#,0,11,21,52,61,31,42,Abstract_Concrete_6tasks_simseq_2seq_listtask_switchAB_fMRI,142464,25413,14235,3,12,92,B5,tools,6,4$,4016.8607352,4134.8736379,118.0129027,4137.2406647,120.3799295
2190,9(,1,12,22,51,61,31,42,Abstract_Concrete_6tasks_simseq_2seq_listtask_switchAB_fMRI,142464,25413,14235,3,13,93,A3,weapon,5,9(,4016.8607352,4144.8723305,128.0115953,0,0
2226,4$,1,12,21,51,62,32,41,Abstract_Concrete_6tasks_simseq_2seq_listtask_switchAB_fMRI,142464,25413,14235,3,14,94,B5,tools,6,4$,4016.8607352,4154.8750622,138.014327,0,0
1586,3#,1,11,22,51,62,31,42,Abstract_Concrete_6tasks_simseq_2seq_listtask_switchAB_fMRI,142464,25413,14235,3,15,95,A5,glasses,3,3#,4016.8607352,4164.8725191,148.0117839,0,0
2053,4$,1,12,21,52,61,32,41,Abstract_Concrete_6tasks_simseq_2seq_listtask_switchAB_fMRI,142464,25413,14235,3,16,96,B5,tools,6,4$,4016.8607352,4173.8708859,157.0101507,0,0
2423,3#,1,12,21,52,62,31,41,Abstract_Concrete_6tasks_simseq_2seq_listtask_switchAB_fMRI,142464,25413,14235,3,17,97,A5,glasses,3,3#,4016.8607352,4183.8742845,167.0135493,0,0
2642,8*,1,12,21,51,61,32,41,Abstract_Concrete_6tasks_simseq_2seq_listtask_switchAB_fMRI,142464,25413,14235,3,18,98,B3,vest,2,8*,4016.8607352,4193.8723999,177.0116647,0,0
3461,7&,1,11,21,52,62,31,41,Abstract_Concrete_6tasks_simseq_2seq_listtask_switchAB_fMRI,142464,25413,14235,3,19,99,A4,helmet,1,7&,4016.8607352,4203.8740661,187.0133309,0,0
1934,7&,1,11,22,52,61,31,41,Abstract_Concrete_6tasks_simseq_2seq_listtask_switchAB_fMRI,142464,25413,14235,3,20,100,B1,helmet,1,7&,4016.8607352,4214.8738566,198.0131214,0,0
2758,7&,1,11,21,51,61,32,41,Abstract_Concrete_6tasks_simseq_2seq_listtask_switchAB_fMRI,142464,25413,14235,3,21,101,A4,helmet,1,7&,4016.8607352,4223.8736716,207.0129364,0,0
1988,8*,1,11,22,52,62,31,42,Abstract_Concrete_6tasks_simseq_2seq_listtask_switchAB_fMRI,142464,25413,14235,3,22,102,B3,vest,2,8*,4016.8607352,4233.8735215,217.0127863,0,0
2625,7&,1,12,22,51,61,31,41,Abstract_Concrete_6tasks_simseq_2seq_listtask_switchAB_fMRI,142464,25413,14235,3,23,103,A4,helmet,1,7&,4016.8607352,4243.871958,227.0112228,0,0
1559,8*,1,11,21,52,61,32,42,Abstract_Concrete_6tasks_simseq_2seq_listtask_switchAB_fMRI,142464,25413,14235,3,24,104,B3,vest,2,8*,4016.8607352,4253.8712208,237.0104856,0,0
1356,8*,1,12,21,52,62,31,41,Abstract_Concrete_6tasks_simseq_2seq_listtask_switchAB_fMRI,142464,25413,14235,3,25,105,A1,vest,2,8*,4016.8607352,4262.8716897,246.0109545,0,0
4756,3#,1,11,21,51,62,31,42,Abstract_Concrete_6tasks_simseq_2seq_listtask_switchAB_fMRI,142464,25413,14235,3,26,106,B4,glasses,3,3#,4016.8607352,4271.8714415,255.0107063,0,0
1616,3#,1,11,22,52,62,31,41,Abstract_Concrete_6tasks_simseq_2seq_listtask_switchAB_fMRI,142464,25413,14235,3,27,107,A5,glasses,3,3#,4016.8607352,4283.8710634,267.0103282,0,0
1948,9(,1,11,21,51,62,32,42,Abstract_Concrete_6tasks_simseq_2seq_listtask_switchAB_fMRI,142464,25413,14235,3,28,108,B2,weapon,5,9(,4016.8607352,4292.8721979,276.0114627,0,0
3112,9(,1,11,21,51,61,32,41,Abstract_Concrete_6tasks_simseq_2seq_listtask_switchAB_fMRI,142464,25413,14235,3,29,109,A3,weapon,5,9(,4016.8607352,4301.8734219,285.0126867,0,0
1376,9(,1,11,22,51,62,32,42,Abstract_Concrete_6tasks_simseq_2seq_listtask_switchAB_fMRI,142464,25413,14235,3,30,110,B2,weapon,5,9(,4016.8607352,4312.8721311,296.0113959,0,0
3150,9(,1,12,21,52,61,31,41,Abstract_Concrete_6tasks_simseq_2seq_listtask_switchAB_fMRI,142464,25413,14235,3,31,111,A3,weapon,5,9(,4016.8607352,4321.8721524,305.0114172,0,0
2095,4$,1,12,21,51,62,31,41,Abstract_Concrete_6tasks_simseq_2seq_listtask_switchAB_fMRI,142464,25413,14235,3,32,112,B5,tools,6,4$,4016.8607352,4332.8722809,316.0115457,0,0
2829,4$,1,12,21,52,62,32,41,Abstract_Concrete_6tasks_simseq_2seq_listtask_switchAB_fMRI,142464,25413,14235,3,33,113,A2,tools,6,4$,4016.8607352,4342.8716952,326.010960000001,0,0
1625,7&,1,12,22,52,62,31,41,Abstract_Concrete_6tasks_simseq_2seq_listtask_switchAB_fMRI,142464,25413,14235,3,34,114,B1,helmet,1,7&,4016.8607352,4352.872589,336.0118538,0,0
3101,3#,0,11,22,52,62,31,42,Abstract_Concrete_6tasks_simseq_2seq_listtask_switchAB_fMRI,142464,25413,14235,3,35,115,A2,tools,6,4$,4016.8607352,4361.8724677,345.0117325,4364.9856893,348.1249541
1341,7&,1,11,22,52,61,32,42,Abstract_Concrete_6tasks_simseq_2seq_listtask_switchAB_fMRI,142464,25413,14235,3,36,116,B1,helmet,1,7&,4016.8607352,4372.872823,356.0120878,0,0
3983,7&,1,12,21,52,61,32,42,Abstract_Concrete_6tasks_simseq_2seq_listtask_switchAB_fMRI,142464,25413,14235,3,37,117,A4,helmet,1,7&,4016.8607352,4381.8723712,365.011636,0,0
2165,8*,1,12,21,52,62,32,41,Abstract_Concrete_6tasks_simseq_2seq_listtask_switchAB_fMRI,142464,25413,14235,3,38,118,B3,vest,2,8*,4016.8607352,4392.8711518,376.0104166,0,0
2588,9(,1,11,22,52,61,32,41,Abstract_Concrete_6tasks_simseq_2seq_listtask_switchAB_fMRI,142464,25413,14235,3,39,119,A3,weapon,5,9(,4016.8607352,4402.8719655,386.011230300001,0,0
2643,3#,1,12,22,52,62,31,42,Abstract_Concrete_6tasks_simseq_2seq_listtask_switchAB_fMRI,142464,25413,14235,3,40,120,B4,glasses,3,3#,4016.8607352,4412.8727704,396.0120352,0,0
3644,3#,1,12,22,52,61,32,42,Abstract_Concrete_6tasks_simseq_2seq_listtask_switchAB_fMRI,142464,25413,14235,4,1,121,B4,glasses,3,3#,4608.8996108,4616.908946,8.00933519999944,0,0
2501,8*,1,11,21,51,62,31,42,Abstract_Concrete_6tasks_simseq_2seq_listtask_switchAB_fMRI,142464,25413,14235,4,2,122,A1,vest,2,8*,4608.8996108,4627.9091782,19.0095673999995,0,0
1727,9(,1,11,22,52,61,31,41,Abstract_Concrete_6tasks_simseq_2seq_listtask_switchAB_fMRI,142464,25413,14235,4,3,123,B2,weapon,5,9(,4608.8996108,4637.9111441,29.0115332999994,0,0
2220,4$,1,12,22,52,61,31,41,Abstract_Concrete_6tasks_simseq_2seq_listtask_switchAB_fMRI,142464,25413,14235,4,4,124,A2,tools,6,4$,4608.8996108,4646.9109393,38.0113284999998,0,0
1677,9(,1,11,21,52,61,32,41,Abstract_Concrete_6tasks_simseq_2seq_listtask_switchAB_fMRI,142464,25413,14235,4,5,125,B2,weapon,5,9(,4608.8996108,4656.912025,48.0124141999995,0,0
1471,8*,1,12,22,51,61,32,41,Abstract_Concrete_6tasks_simseq_2seq_listtask_switchAB_fMRI,142464,25413,14235,4,6,126,A1,vest,2,8*,4608.8996108,4665.9118212,57.0122104000002,0,0
1786,7&,1,12,22,52,62,32,41,Abstract_Concrete_6tasks_simseq_2seq_listtask_switchAB_fMRI,142464,25413,14235,4,7,127,B1,helmet,1,7&,4608.8996108,4674.911446,66.0118352,0,0
2755,7&,1,12,21,52,62,31,42,Abstract_Concrete_6tasks_simseq_2seq_listtask_switchAB_fMRI,142464,25413,14235,4,8,128,A4,helmet,1,7&,4608.8996108,4683.9111446,75.0115337999996,0,0
1252,7&,1,12,21,51,61,32,42,Abstract_Concrete_6tasks_simseq_2seq_listtask_switchAB_fMRI,142464,25413,14235,4,9,129,B1,helmet,1,7&,4608.8996108,4693.9123872,85.0127763999999,0,0
2198,7&,1,11,22,52,61,31,42,Abstract_Concrete_6tasks_simseq_2seq_listtask_switchAB_fMRI,142464,25413,14235,4,10,130,A4,helmet,1,7&,4608.8996108,4702.9134406,94.0138298000002,0,0
2718,8*,1,12,22,51,62,32,42,Abstract_Concrete_6tasks_simseq_2seq_listtask_switchAB_fMRI,142464,25413,14235,4,11,131,B3,vest,2,8*,4608.8996108,4712.912215,104.0126042,0,0
1732,9(,1,12,22,51,62,31,41,Abstract_Concrete_6tasks_simseq_2seq_listtask_switchAB_fMRI,142464,25413,14235,4,12,132,A3,weapon,5,9(,4608.8996108,4722.9128964,114.0132856,0,0
1786,8*,1,12,22,52,62,32,42,Abstract_Concrete_6tasks_simseq_2seq_listtask_switchAB_fMRI,142464,25413,14235,4,13,133,B3,vest,2,8*,4608.8996108,4731.9108921,123.0112813,0,0
1332,9(,1,11,21,52,61,31,42,Abstract_Concrete_6tasks_simseq_2seq_listtask_switchAB_fMRI,142464,25413,14235,4,14,134,A3,weapon,5,9(,4608.8996108,4740.9134349,132.0138241,0,0
3427,4$,1,11,22,51,61,32,41,Abstract_Concrete_6tasks_simseq_2seq_listtask_switchAB_fMRI,142464,25413,14235,4,15,135,B5,tools,6,4$,4608.8996108,4749.9116165,141.012005699999,0,0
3746,3#,1,12,22,52,62,32,41,Abstract_Concrete_6tasks_simseq_2seq_listtask_switchAB_fMRI,142464,25413,14235,4,16,136,A5,glasses,3,3#,4608.8996108,4760.9131016,152.0134908,0,0
4821,4$,1,12,21,52,62,31,42,Abstract_Concrete_6tasks_simseq_2seq_listtask_switchAB_fMRI,142464,25413,14235,4,17,137,B5,tools,6,4$,4608.8996108,4771.9129749,163.0133641,0,0
1506,3#,1,11,22,52,61,32,42,Abstract_Concrete_6tasks_simseq_2seq_listtask_switchAB_fMRI,142464,25413,14235,4,18,138,A5,glasses,3,3#,4608.8996108,4783.9112471,175.0116363,0,0
1635,3#,1,11,22,51,62,32,41,Abstract_Concrete_6tasks_simseq_2seq_listtask_switchAB_fMRI,142464,25413,14235,4,19,139,B4,glasses,3,3#,4608.8996108,4792.910698,184.0110872,0,0
2789,3#,1,11,21,51,61,32,42,Abstract_Concrete_6tasks_simseq_2seq_listtask_switchAB_fMRI,142464,25413,14235,4,20,140,A5,glasses,3,3#,4608.8996108,4801.9113281,193.0117173,0,0
2546,7&,1,12,22,52,61,32,42,Abstract_Concrete_6tasks_simseq_2seq_listtask_switchAB_fMRI,142464,25413,14235,4,21,141,B1,helmet,1,7&,4608.8996108,4811.9109047,203.0112939,0,0
1945,4$,1,11,21,52,62,31,42,Abstract_Concrete_6tasks_simseq_2seq_listtask_switchAB_fMRI,142464,25413,14235,4,22,142,A2,tools,6,4$,4608.8996108,4821.9108702,213.0112594,0,0
1559,4$,1,12,22,51,62,31,42,Abstract_Concrete_6tasks_simseq_2seq_listtask_switchAB_fMRI,142464,25413,14235,4,23,143,B5,tools,6,4$,4608.8996108,4830.9107837,222.0111729,0,0
1552,9(,1,11,22,52,62,32,41,Abstract_Concrete_6tasks_simseq_2seq_listtask_switchAB_fMRI,142464,25413,14235,4,24,144,A3,weapon,5,9(,4608.8996108,4839.9121423,231.0125315,0,0
784,9(,0,11,22,52,62,32,41,Abstract_Concrete_6tasks_simseq_2seq_listtask_switchAB_fMRI,142464,25413,14235,4,25,145,B3,vest,2,8*,4608.8996108,4848.9117298,240.012119,4849.7087432,240.8091324
1866,3#,1,11,22,52,61,32,41,Abstract_Concrete_6tasks_simseq_2seq_listtask_switchAB_fMRI,142464,25413,14235,4,26,146,A5,glasses,3,3#,4608.8996108,4856.913229,248.0136182,0,0
1728,9(,1,12,21,52,61,32,42,Abstract_Concrete_6tasks_simseq_2seq_listtask_switchAB_fMRI,142464,25413,14235,4,27,147,B2,weapon,5,9(,4608.8996108,4865.9099977,257.0103869,0,0
2122,9(,1,12,22,51,62,32,42,Abstract_Concrete_6tasks_simseq_2seq_listtask_switchAB_fMRI,142464,25413,14235,4,28,148,A3,weapon,5,9(,4608.8996108,4874.9122271,266.0126163,0,0
2730,3#,1,12,22,51,62,32,42,Abstract_Concrete_6tasks_simseq_2seq_listtask_switchAB_fMRI,142464,25413,14235,4,29,149,B4,glasses,3,3#,4608.8996108,4884.9126146,276.0130038,0,0
2849,8*,1,12,21,51,62,31,41,Abstract_Concrete_6tasks_simseq_2seq_listtask_switchAB_fMRI,142464,25413,14235,4,30,150,A1,vest,2,8*,4608.8996108,4894.9115718,286.011961,0,0
1608,7&,1,11,22,52,61,32,42,Abstract_Concrete_6tasks_simseq_2seq_listtask_switchAB_fMRI,142464,25413,14235,4,31,151,B1,helmet,1,7&,4608.8996108,4904.9101886,296.0105778,0,0
2870,7&,1,12,21,51,62,31,41,Abstract_Concrete_6tasks_simseq_2seq_listtask_switchAB_fMRI,142464,25413,14235,4,32,152,A4,helmet,1,7&,4608.8996108,4913.9100019,305.0103911,0,0
2594,9(,1,12,21,51,62,32,42,Abstract_Concrete_6tasks_simseq_2seq_listtask_switchAB_fMRI,142464,25413,14235,4,33,153,B2,weapon,5,9(,4608.8996108,4923.9122036,315.0125928,0,0
3783,7&,1,12,22,52,62,31,41,Abstract_Concrete_6tasks_simseq_2seq_listtask_switchAB_fMRI,142464,25413,14235,4,34,154,A4,helmet,1,7&,4608.8996108,4933.9101255,325.010514699999,0,0
2359,3#,1,11,22,51,61,31,42,Abstract_Concrete_6tasks_simseq_2seq_listtask_switchAB_fMRI,142464,25413,14235,4,35,155,B4,glasses,3,3#,4608.8996108,4944.9099818,336.010371,0,0
1317,8*,1,12,21,51,62,32,42,Abstract_Concrete_6tasks_simseq_2seq_listtask_switchAB_fMRI,142464,25413,14235,4,36,156,A1,vest,2,8*,4608.8996108,4954.9109461,346.0113353,0,0
2518,4$,1,11,22,52,61,32,41,Abstract_Concrete_6tasks_simseq_2seq_listtask_switchAB_fMRI,142464,25413,14235,4,37,157,B5,tools,6,4$,4608.8996108,4963.9126734,355.0130626,0,0
2373,4$,1,11,21,51,62,31,42,Abstract_Concrete_6tasks_simseq_2seq_listtask_switchAB_fMRI,142464,25413,14235,4,38,158,A2,tools,6,4$,4608.8996108,4973.9112763,365.0116655,0,0
1639,8*,1,12,21,52,62,31,42,Abstract_Concrete_6tasks_simseq_2seq_listtask_switchAB_fMRI,142464,25413,14235,4,39,159,B3,vest,2,8*,4608.8996108,4983.9115917,375.0119809,0,0
2012,4$,1,12,21,51,62,32,41,Abstract_Concrete_6tasks_simseq_2seq_listtask_switchAB_fMRI,142464,25413,14235,4,40,160,A2,tools,6,4$,4608.8996108,4992.9123712,384.0127604,0,0
1696,8*,1,11,22,51,62,31,41,Abstract_Concrete_6tasks_simseq_2seq_listtask_switchAB_fMRI,142464,25413,14235,5,1,161,B3,vest,2,8*,5041.0451995,5049.05489659052,8.00969709052424,0,0
1797,4$,1,11,21,51,61,32,42,Abstract_Concrete_6tasks_simseq_2seq_listtask_switchAB_fMRI,142464,25413,14235,5,2,162,A2,tools,6,4$,5041.0451995,5058.0549672,17.0097676999994,0,0
3747,7&,1,11,22,51,61,32,42,Abstract_Concrete_6tasks_simseq_2seq_listtask_switchAB_fMRI,142464,25413,14235,5,3,163,B1,helmet,1,7&,5041.0451995,5067.0588924,26.0136929,0,0
1527,4$,1,11,21,51,62,31,42,Abstract_Concrete_6tasks_simseq_2seq_listtask_switchAB_fMRI,142464,25413,14235,5,4,164,A2,tools,6,4$,5041.0451995,5078.0580373,37.0128377999999,0,0
2659,3#,1,12,22,52,62,32,42,Abstract_Concrete_6tasks_simseq_2seq_listtask_switchAB_fMRI,142464,25413,14235,5,5,165,B4,glasses,3,3#,5041.0451995,5087.056305,46.0111054999998,0,0
1730,8*,1,12,22,51,61,32,41,Abstract_Concrete_6tasks_simseq_2seq_listtask_switchAB_fMRI,142464,25413,14235,5,6,166,A1,vest,2,8*,5041.0451995,5097.0573201,56.0121205999994,0,0
1801,9(,1,11,22,51,61,32,42,Abstract_Concrete_6tasks_simseq_2seq_listtask_switchAB_fMRI,142464,25413,14235,5,7,167,B2,weapon,5,9(,5041.0451995,5106.0568353,65.0116357999996,0,0
2132,7&,1,11,21,51,61,32,42,Abstract_Concrete_6tasks_simseq_2seq_listtask_switchAB_fMRI,142464,25413,14235,5,8,168,A4,helmet,1,7&,5041.0451995,5115.0564477,74.0112481999995,0,0
1584,9(,1,11,21,52,61,31,41,Abstract_Concrete_6tasks_simseq_2seq_listtask_switchAB_fMRI,142464,25413,14235,5,9,169,B2,weapon,5,9(,5041.0451995,5125.0608733,84.0156737999996,0,0
1960,4$,1,12,21,51,62,32,41,Abstract_Concrete_6tasks_simseq_2seq_listtask_switchAB_fMRI,142464,25413,14235,5,10,170,A2,tools,6,4$,5041.0451995,5134.0567403,93.0115407999992,0,0
1570,8*,1,11,21,52,62,32,41,Abstract_Concrete_6tasks_simseq_2seq_listtask_switchAB_fMRI,142464,25413,14235,5,11,171,B3,vest,2,8*,5041.0451995,5143.0569524,102.0117529,0,0
2115,7&,1,11,22,52,61,31,41,Abstract_Concrete_6tasks_simseq_2seq_listtask_switchAB_fMRI,142464,25413,14235,5,12,172,A4,helmet,1,7&,5041.0451995,5152.0550149,111.0098154,0,0
1295,7&,1,12,21,52,61,32,41,Abstract_Concrete_6tasks_simseq_2seq_listtask_switchAB_fMRI,142464,25413,14235,5,13,173,B1,helmet,1,7&,5041.0451995,5162.0576433,121.012443799999,0,0
1729,9(,1,12,22,52,61,32,41,Abstract_Concrete_6tasks_simseq_2seq_listtask_switchAB_fMRI,142464,25413,14235,5,14,174,A3,weapon,5,9(,5041.0451995,5171.0572527,130.0120532,0,0
2693,4$,1,11,22,51,62,32,41,Abstract_Concrete_6tasks_simseq_2seq_listtask_switchAB_fMRI,142464,25413,14235,5,15,175,B5,tools,6,4$,5041.0451995,5180.0572203,139.0120208,0,0
2414,3#,1,12,22,52,62,32,42,Abstract_Concrete_6tasks_simseq_2seq_listtask_switchAB_fMRI,142464,25413,14235,5,16,176,A5,glasses,3,3#,5041.0451995,5190.05837,149.013170499999,0,0
1865,4$,1,12,21,52,61,31,41,Abstract_Concrete_6tasks_simseq_2seq_listtask_switchAB_fMRI,142464,25413,14235,5,17,177,B5,tools,6,4$,5041.0451995,5200.0551028,159.0099033,0,0
1459,8*,1,11,22,51,62,32,41,Abstract_Concrete_6tasks_simseq_2seq_listtask_switchAB_fMRI,142464,25413,14235,5,18,178,A1,vest,2,8*,5041.0451995,5209.0566849,168.011485399999,0,0
1303,7&,1,12,22,52,61,32,41,Abstract_Concrete_6tasks_simseq_2seq_listtask_switchAB_fMRI,142464,25413,14235,5,19,179,B1,helmet,1,7&,5041.0451995,5218.0591194,177.0139199,0,0
1891,3#,1,12,21,52,62,31,41,Abstract_Concrete_6tasks_simseq_2seq_listtask_switchAB_fMRI,142464,25413,14235,5,20,180,A5,glasses,3,3#,5041.0451995,5227.058655,186.0134555,0,0
1775,8*,1,12,21,52,62,31,42,Abstract_Concrete_6tasks_simseq_2seq_listtask_switchAB_fMRI,142464,25413,14235,5,21,181,B3,vest,2,8*,5041.0451995,5236.0567419,195.0115424,0,0
2632,9(,1,12,21,52,61,31,42,Abstract_Concrete_6tasks_simseq_2seq_listtask_switchAB_fMRI,142464,25413,14235,5,22,182,A3,weapon,5,9(,5041.0451995,5245.0571023,204.0119028,0,0
1604,4$,1,12,22,52,61,31,42,Abstract_Concrete_6tasks_simseq_2seq_listtask_switchAB_fMRI,142464,25413,14235,5,23,183,B5,tools,6,4$,5041.0451995,5255.0564259,214.0112264,0,0
2692,9(,1,11,22,52,62,31,41,Abstract_Concrete_6tasks_simseq_2seq_listtask_switchAB_fMRI,142464,25413,14235,5,24,184,A3,weapon,5,9(,5041.0451995,5264.0576076,223.012408099999,0,0
1741,3#,1,12,21,52,61,31,41,Abstract_Concrete_6tasks_simseq_2seq_listtask_switchAB_fMRI,142464,25413,14235,5,25,185,B4,glasses,3,3#,5041.0451995,5274.0561782,233.0109787,0,0
1803,3#,1,11,21,51,61,32,42,Abstract_Concrete_6tasks_simseq_2seq_listtask_switchAB_fMRI,142464,25413,14235,5,26,186,A5,glasses,3,3#,5041.0451995,5283.0563477,242.011148199999,0,0
1469,4$,1,11,21,51,62,32,41,Abstract_Concrete_6tasks_simseq_2seq_listtask_switchAB_fMRI,142464,25413,14235,5,27,187,B5,tools,6,4$,5041.0451995,5292.0567894,251.011589899999,0,0
2724,9(,1,12,21,51,62,31,41,Abstract_Concrete_6tasks_simseq_2seq_listtask_switchAB_fMRI,142464,25413,14235,5,28,188,A3,weapon,5,9(,5041.0451995,5301.0563201,260.0111206,0,0
1646,9(,1,12,22,51,61,32,41,Abstract_Concrete_6tasks_simseq_2seq_listtask_switchAB_fMRI,142464,25413,14235,5,29,189,B2,weapon,5,9(,5041.0451995,5311.0555701,270.0103706,0,0
1985,7&,1,11,22,52,62,32,42,Abstract_Concrete_6tasks_simseq_2seq_listtask_switchAB_fMRI,142464,25413,14235,5,30,190,A4,helmet,1,7&,5041.0451995,5320.0571005,279.011901,0,0
2403,3#,1,11,21,52,62,31,42,Abstract_Concrete_6tasks_simseq_2seq_listtask_switchAB_fMRI,142464,25413,14235,5,31,191,B4,glasses,3,3#,5041.0451995,5329.0562361,288.0110366,0,0
2035,4$,1,12,22,52,62,31,42,Abstract_Concrete_6tasks_simseq_2seq_listtask_switchAB_fMRI,142464,25413,14235,5,32,192,A2,tools,6,4$,5041.0451995,5339.0567314,298.0115319,0,0
1933,7&,1,12,22,51,61,31,42,Abstract_Concrete_6tasks_simseq_2seq_listtask_switchAB_fMRI,142464,25413,14235,5,33,193,B1,helmet,1,7&,5041.0451995,5349.0587683,308.0135688,0,0
1693,3#,1,12,21,51,62,32,41,Abstract_Concrete_6tasks_simseq_2seq_listtask_switchAB_fMRI,142464,25413,14235,5,34,194,A5,glasses,3,3#,5041.0451995,5358.0593877,317.0141882,0,0
1242,9(,1,12,21,51,62,32,41,Abstract_Concrete_6tasks_simseq_2seq_listtask_switchAB_fMRI,142464,25413,14235,5,35,195,B2,weapon,5,9(,5041.0451995,5367.0568593,326.0116598,0,0
1347,8*,1,12,21,52,62,32,41,Abstract_Concrete_6tasks_simseq_2seq_listtask_switchAB_fMRI,142464,25413,14235,5,36,196,A1,vest,2,8*,5041.0451995,5376.0584866,335.0132871,0,0
3347,3#,1,12,21,52,62,31,42,Abstract_Concrete_6tasks_simseq_2seq_listtask_switchAB_fMRI,142464,25413,14235,5,37,197,B4,glasses,3,3#,5041.0451995,5385.0566864,344.0114869,0,0
1462,8*,1,11,21,51,61,32,41,Abstract_Concrete_6tasks_simseq_2seq_listtask_switchAB_fMRI,142464,25413,14235,5,38,198,A1,vest,2,8*,5041.0451995,5396.0557628,355.010563299999,0,0
1404,8*,1,11,22,52,61,32,41,Abstract_Concrete_6tasks_simseq_2seq_listtask_switchAB_fMRI,142464,25413,14235,5,39,199,B3,vest,2,8*,5041.0451995,5405.0567203,364.0115208,0,0
2130,7&,1,11,22,52,61,31,41,Abstract_Concrete_6tasks_simseq_2seq_listtask_switchAB_fMRI,142464,25413,14235,5,40,200,A4,helmet,1,7&,5041.0451995,5414.0629128,373.0177133,0,0
2498,8*,1,11,22,51,61,32,41,Abstract_Concrete_6tasks_simseq_2seq_listtask_switchAB_fMRI,142464,25413,14235,6,1,201,A1,vest,2,8*,5464.946591,5472.9565351,8.00994410000021,0,0
3544,3#,1,12,22,51,62,31,41,Abstract_Concrete_6tasks_simseq_2seq_listtask_switchAB_fMRI,142464,25413,14235,6,2,202,B4,glasses,3,3#,5464.946591,5482.9565141,18.0099231000004,0,0
1210,8*,1,12,21,51,62,31,42,Abstract_Concrete_6tasks_simseq_2seq_listtask_switchAB_fMRI,142464,25413,14235,6,3,203,A1,vest,2,8*,5464.946591,5493.9588751,29.0122841000002,0,0
1331,7&,1,11,21,52,62,32,41,Abstract_Concrete_6tasks_simseq_2seq_listtask_switchAB_fMRI,142464,25413,14235,6,4,204,B1,helmet,1,7&,5464.946591,5502.9588376,38.0122466000003,0,0
1168,8*,1,11,22,51,62,31,41,Abstract_Concrete_6tasks_simseq_2seq_listtask_switchAB_fMRI,142464,25413,14235,6,5,205,A1,vest,2,8*,5464.946591,5511.9605466,47.0139556000004,0,0
1625,8*,1,12,21,52,62,32,42,Abstract_Concrete_6tasks_simseq_2seq_listtask_switchAB_fMRI,142464,25413,14235,6,6,206,B3,vest,2,8*,5464.946591,5520.9591184,56.0125274000002,0,0
1935,7&,1,11,22,52,62,31,41,Abstract_Concrete_6tasks_simseq_2seq_listtask_switchAB_fMRI,142464,25413,14235,6,7,207,A4,helmet,1,7&,5464.946591,5529.9584459,65.0118548999999,0,0
1223,7&,1,11,21,52,62,31,42,Abstract_Concrete_6tasks_simseq_2seq_listtask_switchAB_fMRI,142464,25413,14235,6,8,208,B1,helmet,1,7&,5464.946591,5538.9586142,74.0120231999999,0,0
2174,7&,1,11,21,52,61,31,42,Abstract_Concrete_6tasks_simseq_2seq_listtask_switchAB_fMRI,142464,25413,14235,6,9,209,A4,helmet,1,7&,5464.946591,5547.9592164,83.0126253999997,0,0
1790,8*,1,12,21,51,62,31,41,Abstract_Concrete_6tasks_simseq_2seq_listtask_switchAB_fMRI,142464,25413,14235,6,10,210,B3,vest,2,8*,5464.946591,5557.9587965,93.0122055000002,0,0
1648,9(,1,11,21,51,61,32,42,Abstract_Concrete_6tasks_simseq_2seq_listtask_switchAB_fMRI,142464,25413,14235,6,11,211,A3,weapon,5,9(,5464.946591,5566.962236,102.015645,0,0
2157,4$,1,11,21,51,61,31,41,Abstract_Concrete_6tasks_simseq_2seq_listtask_switchAB_fMRI,142464,25413,14235,6,12,212,B5,tools,6,4$,5464.946591,5575.9582477,111.0116567,0,0
1912,3#,1,11,22,52,61,32,41,Abstract_Concrete_6tasks_simseq_2seq_listtask_switchAB_fMRI,142464,25413,14235,6,13,213,A5,glasses,3,3#,5464.946591,5585.9577921,121.0112011,0,0
1195,4$,1,12,22,52,62,31,42,Abstract_Concrete_6tasks_simseq_2seq_listtask_switchAB_fMRI,142464,25413,14235,6,14,214,B5,tools,6,4$,5464.946591,5594.9581453,130.0115543,0,0
2005,9(,1,12,22,52,61,31,41,Abstract_Concrete_6tasks_simseq_2seq_listtask_switchAB_fMRI,142464,25413,14235,6,15,215,A3,weapon,5,9(,5464.946591,5603.9583339,139.0117429,0,0
1721,4$,1,12,22,52,62,32,41,Abstract_Concrete_6tasks_simseq_2seq_listtask_switchAB_fMRI,142464,25413,14235,6,16,216,B5,tools,6,4$,5464.946591,5613.959009,149.012418,0,0
1944,3#,1,12,21,51,62,32,42,Abstract_Concrete_6tasks_simseq_2seq_listtask_switchAB_fMRI,142464,25413,14235,6,17,217,A5,glasses,3,3#,5464.946591,5622.9597168,158.0131258,0,0
1251,9(,1,11,21,51,61,31,42,Abstract_Concrete_6tasks_simseq_2seq_listtask_switchAB_fMRI,142464,25413,14235,6,18,218,B2,weapon,5,9(,5464.946591,5631.9589884,167.0123974,0,0
2298,4$,1,12,21,51,62,31,41,Abstract_Concrete_6tasks_simseq_2seq_listtask_switchAB_fMRI,142464,25413,14235,6,19,219,A2,tools,6,4$,5464.946591,5640.9578065,176.0112155,0,0
992,9(,1,11,22,51,62,31,42,Abstract_Concrete_6tasks_simseq_2seq_listtask_switchAB_fMRI,142464,25413,14235,6,20,220,B2,weapon,5,9(,5464.946591,5650.958598,186.012007,0,0
2799,3#,1,11,21,52,61,31,41,Abstract_Concrete_6tasks_simseq_2seq_listtask_switchAB_fMRI,142464,25413,14235,6,21,221,A5,glasses,3,3#,5464.946591,5659.9592195,195.0126285,0,0
2126,3#,1,11,22,52,62,31,41,Abstract_Concrete_6tasks_simseq_2seq_listtask_switchAB_fMRI,142464,25413,14235,6,22,222,B4,glasses,3,3#,5464.946591,5669.9603414,205.0137504,0,0
2560,9(,1,12,22,52,62,31,41,Abstract_Concrete_6tasks_simseq_2seq_listtask_switchAB_fMRI,142464,25413,14235,6,23,223,A3,weapon,5,9(,5464.946591,5679.9587763,215.0121853,0,0
2096,4$,1,12,21,52,62,32,41,Abstract_Concrete_6tasks_simseq_2seq_listtask_switchAB_fMRI,142464,25413,14235,6,24,224,B5,tools,6,4$,5464.946591,5689.9592329,225.0126419,0,0
2356,9(,1,12,22,51,62,32,42,Abstract_Concrete_6tasks_simseq_2seq_listtask_switchAB_fMRI,142464,25413,14235,6,25,225,A3,weapon,5,9(,5464.946591,5699.959765,235.013174,0,0
2297,8*,1,11,21,52,62,31,42,Abstract_Concrete_6tasks_simseq_2seq_listtask_switchAB_fMRI,142464,25413,14235,6,26,226,B3,vest,2,8*,5464.946591,5709.9582111,245.0116201,0,0
1629,7&,1,11,22,52,62,32,41,Abstract_Concrete_6tasks_simseq_2seq_listtask_switchAB_fMRI,142464,25413,14235,6,27,227,A4,helmet,1,7&,5464.946591,5719.958093,255.011502,0,0
1130,7&,1,11,21,52,62,32,41,Abstract_Concrete_6tasks_simseq_2seq_listtask_switchAB_fMRI,142464,25413,14235,6,28,228,B1,helmet,1,7&,5464.946591,5728.9578496,264.0112586,0,0
1287,8*,1,12,21,51,62,31,41,Abstract_Concrete_6tasks_simseq_2seq_listtask_switchAB_fMRI,142464,25413,14235,6,29,229,A1,vest,2,8*,5464.946591,5737.958595,273.012004,0,0
1596,3#,1,11,21,52,62,32,41,Abstract_Concrete_6tasks_simseq_2seq_listtask_switchAB_fMRI,142464,25413,14235,6,30,230,B4,glasses,3,3#,5464.946591,5746.9581963,282.0116053,0,0
2531,4$,1,12,22,51,62,31,42,Abstract_Concrete_6tasks_simseq_2seq_listtask_switchAB_fMRI,142464,25413,14235,6,31,231,A2,tools,6,4$,5464.946591,5755.9594305,291.0128395,0,0
1176,7&,1,11,22,52,61,31,42,Abstract_Concrete_6tasks_simseq_2seq_listtask_switchAB_fMRI,142464,25413,14235,6,32,232,B1,helmet,1,7&,5464.946591,5765.9584257,301.0118347,0,0
2013,3#,1,12,21,52,61,32,42,Abstract_Concrete_6tasks_simseq_2seq_listtask_switchAB_fMRI,142464,25413,14235,6,33,233,A5,glasses,3,3#,5464.946591,5774.9602194,310.0136284,0,0
1415,9(,1,12,21,52,62,31,41,Abstract_Concrete_6tasks_simseq_2seq_listtask_switchAB_fMRI,142464,25413,14235,6,34,234,B2,weapon,5,9(,5464.946591,5784.9586764,320.0120854,0,0
2414,4$,1,11,22,52,62,31,42,Abstract_Concrete_6tasks_simseq_2seq_listtask_switchAB_fMRI,142464,25413,14235,6,35,235,A2,tools,6,4$,5464.946591,5793.9577758,329.0111848,0,0
1637,8*,1,12,22,52,62,31,42,Abstract_Concrete_6tasks_simseq_2seq_listtask_switchAB_fMRI,142464,25413,14235,6,36,236,B3,vest,2,8*,5464.946591,5803.9577691,339.011178100001,0,0
1629,4$,1,11,22,51,61,31,41,Abstract_Concrete_6tasks_simseq_2seq_listtask_switchAB_fMRI,142464,25413,14235,6,37,237,A2,tools,6,4$,5464.946591,5812.957268,348.010677,0,0
1444,9(,1,11,22,51,61,31,41,Abstract_Concrete_6tasks_simseq_2seq_listtask_switchAB_fMRI,142464,25413,14235,6,38,238,B2,weapon,5,9(,5464.946591,5821.9579362,357.011345200001,0,0
1472,7&,1,12,21,51,62,31,42,Abstract_Concrete_6tasks_simseq_2seq_listtask_switchAB_fMRI,142464,25413,14235,6,39,239,A4,helmet,1,7&,5464.946591,5830.9578191,366.0112281,0,0
3976,3#,1,11,21,51,61,31,41,Abstract_Concrete_6tasks_simseq_2seq_listtask_switchAB_fMRI,142464,25413,14235,6,40,240,B4,glasses,3,3#,5464.946591,5839.9581141,375.0115231,0,0
