rt1,resp1,correct1,features_1,features_2,features_3,features_4,features_5,features_6,ExpName,subNo,seqA,seqB,block,trial,trialnum,cuetype,task,subtaskcode,corr_resp1,onsetTime_s,onsetTime_cue,onset_cue,onsetTime_cue_fb,onset_cue_fb
2072,7&,1,51,62,22,11,32,42,Abstract_Concrete_6tasks_simseq_2seq_listtask_switchAB_fMRI,148023,23541,45213,1,1,1,B1,weapon,5,7&,3518.7947168,3526.8060322,8.01131540000006,0,0
2153,9(,1,51,62,22,11,32,42,Abstract_Concrete_6tasks_simseq_2seq_listtask_switchAB_fMRI,148023,23541,45213,1,2,2,A1,vest,2,9(,3518.7947168,3536.8068902,18.0121733999999,0,0
5101,8*,1,52,61,21,11,31,41,Abstract_Concrete_6tasks_simseq_2seq_listtask_switchAB_fMRI,148023,23541,45213,1,3,3,B2,tools,6,8*,3518.7947168,3546.8074275,28.0127106999998,0,0
3106,3#,1,51,62,21,11,32,42,Abstract_Concrete_6tasks_simseq_2seq_listtask_switchAB_fMRI,148023,23541,45213,1,4,4,A2,glasses,3,3#,3518.7947168,3559.8059694,41.0112525999998,0,0
2602,4$,1,52,61,21,12,32,41,Abstract_Concrete_6tasks_simseq_2seq_listtask_switchAB_fMRI,148023,23541,45213,1,5,5,B4,helmet,1,4$,3518.7947168,3570.8074994,52.0127825999998,0,0
3453,7&,1,51,62,21,12,31,42,Abstract_Concrete_6tasks_simseq_2seq_listtask_switchAB_fMRI,148023,23541,45213,1,6,6,A4,weapon,5,7&,3518.7947168,3580.8065178,62.0118010000001,0,0
3717,8*,1,52,62,21,11,32,41,Abstract_Concrete_6tasks_simseq_2seq_listtask_switchAB_fMRI,148023,23541,45213,1,7,7,B2,tools,6,8*,3518.7947168,3591.807798,73.0130811999998,0,0
2434,3#,1,51,61,21,12,32,41,Abstract_Concrete_6tasks_simseq_2seq_listtask_switchAB_fMRI,148023,23541,45213,1,8,8,A2,glasses,3,3#,3518.7947168,3602.8063155,84.0115986999999,0,0
4057,9(,1,51,61,21,11,31,41,Abstract_Concrete_6tasks_simseq_2seq_listtask_switchAB_fMRI,148023,23541,45213,1,9,9,B3,vest,2,9(,3518.7947168,3612.8080701,94.0133532999998,0,0
3036,8*,1,52,61,22,12,32,42,Abstract_Concrete_6tasks_simseq_2seq_listtask_switchAB_fMRI,148023,23541,45213,1,10,10,A3,tools,6,8*,3518.7947168,3624.8081178,106.013401,0,0
2157,3#,1,52,61,22,11,32,41,Abstract_Concrete_6tasks_simseq_2seq_listtask_switchAB_fMRI,148023,23541,45213,1,11,11,B5,glasses,3,3#,3518.7947168,3635.8082915,117.0135747,0,0
2214,9(,1,51,62,21,12,32,41,Abstract_Concrete_6tasks_simseq_2seq_listtask_switchAB_fMRI,148023,23541,45213,1,12,12,A1,vest,2,9(,3518.7947168,3645.8064648,127.011748,0,0
2168,9(,1,52,61,21,11,31,42,Abstract_Concrete_6tasks_simseq_2seq_listtask_switchAB_fMRI,148023,23541,45213,1,13,13,B3,vest,2,9(,3518.7947168,3655.8071797,137.0124629,0,0
3518,8*,1,51,62,22,11,32,41,Abstract_Concrete_6tasks_simseq_2seq_listtask_switchAB_fMRI,148023,23541,45213,1,14,14,A3,tools,6,8*,3518.7947168,3665.8066073,147.0118905,0,0
1867,8*,1,52,62,21,12,32,42,Abstract_Concrete_6tasks_simseq_2seq_listtask_switchAB_fMRI,148023,23541,45213,1,15,15,B2,tools,6,8*,3518.7947168,3676.8084049,158.0136881,0,0
2217,3#,1,52,61,22,12,31,41,Abstract_Concrete_6tasks_simseq_2seq_listtask_switchAB_fMRI,148023,23541,45213,1,16,16,A2,glasses,3,3#,3518.7947168,3685.8056458,167.010929,0,0
1302,3#,1,52,61,22,11,32,42,Abstract_Concrete_6tasks_simseq_2seq_listtask_switchAB_fMRI,148023,23541,45213,1,17,17,B5,glasses,3,3#,3518.7947168,3695.8059452,177.0112284,0,0
1279,4$,1,51,61,21,12,32,41,Abstract_Concrete_6tasks_simseq_2seq_listtask_switchAB_fMRI,148023,23541,45213,1,18,18,A5,helmet,1,4$,3518.7947168,3704.8080845,186.0133677,0,0
1285,7&,1,52,61,21,12,31,42,Abstract_Concrete_6tasks_simseq_2seq_listtask_switchAB_fMRI,148023,23541,45213,1,19,19,B1,weapon,5,7&,3518.7947168,3713.8062472,195.0115304,0,0
2165,9(,1,52,62,22,11,32,42,Abstract_Concrete_6tasks_simseq_2seq_listtask_switchAB_fMRI,148023,23541,45213,1,20,20,A1,vest,2,9(,3518.7947168,3722.807457,204.0127402,0,0
5161,7&,1,51,62,22,12,32,42,Abstract_Concrete_6tasks_simseq_2seq_listtask_switchAB_fMRI,148023,23541,45213,1,21,21,B1,weapon,5,7&,3518.7947168,3732.8087303,214.0140135,0,0
3504,4$,1,52,62,22,11,31,41,Abstract_Concrete_6tasks_simseq_2seq_listtask_switchAB_fMRI,148023,23541,45213,1,22,22,A5,helmet,1,4$,3518.7947168,3745.806211,227.0114942,0,0
2005,9(,1,52,61,21,11,31,41,Abstract_Concrete_6tasks_simseq_2seq_listtask_switchAB_fMRI,148023,23541,45213,1,23,23,B3,vest,2,9(,3518.7947168,3756.8060063,238.0112895,0,0
1689,9(,1,51,62,21,11,32,42,Abstract_Concrete_6tasks_simseq_2seq_listtask_switchAB_fMRI,148023,23541,45213,1,24,24,A1,vest,2,9(,3518.7947168,3766.8063825,248.0116657,0,0
3144,4$,1,52,62,22,12,32,41,Abstract_Concrete_6tasks_simseq_2seq_listtask_switchAB_fMRI,148023,23541,45213,1,25,25,B4,helmet,1,4$,3518.7947168,3775.8070488,257.012332,0,0
2347,4$,1,52,62,21,12,31,41,Abstract_Concrete_6tasks_simseq_2seq_listtask_switchAB_fMRI,148023,23541,45213,1,26,26,A5,helmet,1,4$,3518.7947168,3786.8074445,268.0127277,0,0
1558,8*,1,51,61,21,11,32,41,Abstract_Concrete_6tasks_simseq_2seq_listtask_switchAB_fMRI,148023,23541,45213,1,27,27,B2,tools,6,8*,3518.7947168,3796.8067671,278.0120503,0,0
6090,7&,1,52,61,21,11,32,42,Abstract_Concrete_6tasks_simseq_2seq_listtask_switchAB_fMRI,148023,23541,45213,1,28,28,A4,weapon,5,7&,3518.7947168,3805.8082264,287.0135096,0,0
1052,7&,1,51,61,22,12,31,42,Abstract_Concrete_6tasks_simseq_2seq_listtask_switchAB_fMRI,148023,23541,45213,1,29,29,B1,weapon,5,7&,3518.7947168,3819.805966,301.0112492,0,0
2438,4$,1,51,61,22,11,32,42,Abstract_Concrete_6tasks_simseq_2seq_listtask_switchAB_fMRI,148023,23541,45213,1,30,30,A5,helmet,1,4$,3518.7947168,3828.8087871,310.0140703,0,0
2624,9(,1,51,61,21,12,31,42,Abstract_Concrete_6tasks_simseq_2seq_listtask_switchAB_fMRI,148023,23541,45213,1,31,31,B3,vest,2,9(,3518.7947168,3838.8058481,320.0111313,0,0
3988,8*,1,52,62,21,11,31,42,Abstract_Concrete_6tasks_simseq_2seq_listtask_switchAB_fMRI,148023,23541,45213,1,32,32,A3,tools,6,8*,3518.7947168,3848.8061769,330.0114601,0,0
1605,3#,1,51,61,21,12,32,42,Abstract_Concrete_6tasks_simseq_2seq_listtask_switchAB_fMRI,148023,23541,45213,1,33,33,B5,glasses,3,3#,3518.7947168,3860.8061485,342.0114317,0,0
3647,7&,1,51,61,21,12,31,42,Abstract_Concrete_6tasks_simseq_2seq_listtask_switchAB_fMRI,148023,23541,45213,1,34,34,A4,weapon,5,7&,3518.7947168,3869.8073833,351.0126665,0,0
3268,4$,1,52,62,21,12,32,41,Abstract_Concrete_6tasks_simseq_2seq_listtask_switchAB_fMRI,148023,23541,45213,1,35,35,B4,helmet,1,4$,3518.7947168,3880.805595,362.0108782,0,0
3395,8*,1,52,62,22,12,32,41,Abstract_Concrete_6tasks_simseq_2seq_listtask_switchAB_fMRI,148023,23541,45213,1,36,36,A3,tools,6,8*,3518.7947168,3891.8056518,373.010935,0,0
3471,4$,1,52,62,21,11,31,42,Abstract_Concrete_6tasks_simseq_2seq_listtask_switchAB_fMRI,148023,23541,45213,1,37,37,B4,helmet,1,4$,3518.7947168,3902.8079674,384.0132506,0,0
1878,3#,1,51,61,22,11,32,42,Abstract_Concrete_6tasks_simseq_2seq_listtask_switchAB_fMRI,148023,23541,45213,1,38,38,A2,glasses,3,3#,3518.7947168,3913.8067218,395.012005,0,0
4549,3#,1,52,62,22,11,32,41,Abstract_Concrete_6tasks_simseq_2seq_listtask_switchAB_fMRI,148023,23541,45213,1,39,39,B5,glasses,3,3#,3518.7947168,3922.8051021,404.0103853,0,0
4996,3#,0,51,61,22,12,32,42,Abstract_Concrete_6tasks_simseq_2seq_listtask_switchAB_fMRI,148023,23541,45213,1,40,40,A4,weapon,5,7&,3518.7947168,3934.8074738,416.012757,3939.8191505,421.0244337
2399,8*,1,52,61,21,12,32,42,Abstract_Concrete_6tasks_simseq_2seq_listtask_switchAB_fMRI,148023,23541,45213,2,1,41,B2,tools,6,8*,4013.0322777,4021.0436967,8.01141899999993,0,0
1991,9(,1,51,62,21,12,31,42,Abstract_Concrete_6tasks_simseq_2seq_listtask_switchAB_fMRI,148023,23541,45213,2,2,42,A1,vest,2,9(,4013.0322777,4031.0453158,18.0130380999999,0,0
1168,7&,1,51,61,22,12,32,41,Abstract_Concrete_6tasks_simseq_2seq_listtask_switchAB_fMRI,148023,23541,45213,2,3,43,B1,weapon,5,7&,4013.0322777,4041.0465261,28.0142483999998,0,0
2796,8*,1,51,62,22,11,32,41,Abstract_Concrete_6tasks_simseq_2seq_listtask_switchAB_fMRI,148023,23541,45213,2,4,44,A3,tools,6,8*,4013.0322777,4050.0421082,37.0098304999997,0,0
2137,9(,1,52,62,22,12,32,41,Abstract_Concrete_6tasks_simseq_2seq_listtask_switchAB_fMRI,148023,23541,45213,2,5,45,B3,vest,2,9(,4013.0322777,4060.0454832,47.0132054999999,0,0
1483,9(,1,51,62,22,11,31,41,Abstract_Concrete_6tasks_simseq_2seq_listtask_switchAB_fMRI,148023,23541,45213,2,6,46,A1,vest,2,9(,4013.0322777,4070.0435011,57.0112233999998,0,0
2567,4$,1,51,62,21,12,31,42,Abstract_Concrete_6tasks_simseq_2seq_listtask_switchAB_fMRI,148023,23541,45213,2,7,47,B4,helmet,1,4$,4013.0322777,4079.044129,66.0118512999998,0,0
2575,4$,1,51,62,22,12,31,42,Abstract_Concrete_6tasks_simseq_2seq_listtask_switchAB_fMRI,148023,23541,45213,2,8,48,A5,helmet,1,4$,4013.0322777,4089.0440091,76.0117313999999,0,0
1540,8*,1,52,61,21,11,31,41,Abstract_Concrete_6tasks_simseq_2seq_listtask_switchAB_fMRI,148023,23541,45213,2,9,49,B2,tools,6,8*,4013.0322777,4099.0453859,86.0131081999998,0,0
2262,8*,1,51,61,22,11,32,42,Abstract_Concrete_6tasks_simseq_2seq_listtask_switchAB_fMRI,148023,23541,45213,2,10,50,A3,tools,6,8*,4013.0322777,4108.045197,95.0129193000002,0,0
2527,9(,1,51,61,22,12,31,42,Abstract_Concrete_6tasks_simseq_2seq_listtask_switchAB_fMRI,148023,23541,45213,2,11,51,B3,vest,2,9(,4013.0322777,4118.0447403,105.0124626,0,0
2717,4$,1,52,62,22,12,31,41,Abstract_Concrete_6tasks_simseq_2seq_listtask_switchAB_fMRI,148023,23541,45213,2,12,52,A5,helmet,1,4$,4013.0322777,4128.0441319,115.0118542,0,0
2110,4$,1,51,61,21,11,32,42,Abstract_Concrete_6tasks_simseq_2seq_listtask_switchAB_fMRI,148023,23541,45213,2,13,53,B4,helmet,1,4$,4013.0322777,4138.04575,125.0134723,0,0
1596,3#,1,52,61,21,12,32,41,Abstract_Concrete_6tasks_simseq_2seq_listtask_switchAB_fMRI,148023,23541,45213,2,14,54,A2,glasses,3,3#,4013.0322777,4148.0446456,135.0123679,0,0
1629,9(,1,52,62,22,12,32,42,Abstract_Concrete_6tasks_simseq_2seq_listtask_switchAB_fMRI,148023,23541,45213,2,15,55,B3,vest,2,9(,4013.0322777,4157.044022,144.0117443,0,0
1423,9(,1,51,61,21,11,32,41,Abstract_Concrete_6tasks_simseq_2seq_listtask_switchAB_fMRI,148023,23541,45213,2,16,56,A1,vest,2,9(,4013.0322777,4166.0441041,153.0118264,0,0
3182,9(,1,51,61,22,11,31,42,Abstract_Concrete_6tasks_simseq_2seq_listtask_switchAB_fMRI,148023,23541,45213,2,17,57,B3,vest,2,9(,4013.0322777,4175.0444276,162.0121499,0,0
1592,4$,1,52,61,22,11,32,42,Abstract_Concrete_6tasks_simseq_2seq_listtask_switchAB_fMRI,148023,23541,45213,2,18,58,A5,helmet,1,4$,4013.0322777,4186.0448971,173.012619399999,0,0
1342,3#,1,52,62,22,11,32,42,Abstract_Concrete_6tasks_simseq_2seq_listtask_switchAB_fMRI,148023,23541,45213,2,19,59,B5,glasses,3,3#,4013.0322777,4195.0444412,182.0121635,0,0
3015,8*,1,51,61,22,12,32,41,Abstract_Concrete_6tasks_simseq_2seq_listtask_switchAB_fMRI,148023,23541,45213,2,20,60,A3,tools,6,8*,4013.0322777,4204.0442249,191.0119472,0,0
1345,8*,1,52,62,21,12,32,41,Abstract_Concrete_6tasks_simseq_2seq_listtask_switchAB_fMRI,148023,23541,45213,2,21,61,B2,tools,6,8*,4013.0322777,4215.0448899,202.0126122,0,0
1780,9(,1,52,62,22,11,32,41,Abstract_Concrete_6tasks_simseq_2seq_listtask_switchAB_fMRI,148023,23541,45213,2,22,62,A1,vest,2,9(,4013.0322777,4224.0453078,211.0130301,0,0
1517,4$,0,51,62,21,12,32,41,Abstract_Concrete_6tasks_simseq_2seq_listtask_switchAB_fMRI,148023,23541,45213,2,23,63,B5,glasses,3,3#,4013.0322777,4233.0429228,220.0106451,4234.5752683,221.5429906
2369,3#,1,52,61,21,12,32,41,Abstract_Concrete_6tasks_simseq_2seq_listtask_switchAB_fMRI,148023,23541,45213,2,24,64,A2,glasses,3,3#,4013.0322777,4242.0424021,229.0101244,0,0
1434,7&,1,51,62,22,12,32,42,Abstract_Concrete_6tasks_simseq_2seq_listtask_switchAB_fMRI,148023,23541,45213,2,25,65,B1,weapon,5,7&,4013.0322777,4252.044746,239.012468299999,0,0
2388,8*,1,51,62,22,12,31,42,Abstract_Concrete_6tasks_simseq_2seq_listtask_switchAB_fMRI,148023,23541,45213,2,26,66,A3,tools,6,8*,4013.0322777,4261.0452521,248.0129744,0,0
1100,7&,1,51,62,21,11,32,41,Abstract_Concrete_6tasks_simseq_2seq_listtask_switchAB_fMRI,148023,23541,45213,2,27,67,B1,weapon,5,7&,4013.0322777,4271.0450251,258.0127474,0,0
5370,7&,1,51,62,21,12,32,42,Abstract_Concrete_6tasks_simseq_2seq_listtask_switchAB_fMRI,148023,23541,45213,2,28,68,A4,weapon,5,7&,4013.0322777,4280.0438826,267.0116049,0,0
1096,7&,1,52,61,22,11,31,42,Abstract_Concrete_6tasks_simseq_2seq_listtask_switchAB_fMRI,148023,23541,45213,2,29,69,B1,weapon,5,7&,4013.0322777,4293.0442641,280.0119864,0,0
3726,7&,1,52,62,21,12,32,42,Abstract_Concrete_6tasks_simseq_2seq_listtask_switchAB_fMRI,148023,23541,45213,2,30,70,A4,weapon,5,7&,4013.0322777,4302.043793,289.0115153,0,0
2547,3#,1,51,62,21,11,32,42,Abstract_Concrete_6tasks_simseq_2seq_listtask_switchAB_fMRI,148023,23541,45213,2,31,71,B5,glasses,3,3#,4013.0322777,4313.0452202,300.0129425,0,0
2686,7&,1,51,61,22,11,31,41,Abstract_Concrete_6tasks_simseq_2seq_listtask_switchAB_fMRI,148023,23541,45213,2,32,72,A4,weapon,5,7&,4013.0322777,4323.0443297,310.012052,0,0
1275,8*,1,52,62,21,12,31,41,Abstract_Concrete_6tasks_simseq_2seq_listtask_switchAB_fMRI,148023,23541,45213,2,33,73,B2,tools,6,8*,4013.0322777,4333.0440181,320.0117404,0,0
5250,3#,0,52,62,22,11,32,42,Abstract_Concrete_6tasks_simseq_2seq_listtask_switchAB_fMRI,148023,23541,45213,2,34,74,A5,helmet,1,4$,4013.0322777,4342.0454658,329.0131881,4347.3090363,334.2767586
5532,4$,1,52,61,21,11,31,42,Abstract_Concrete_6tasks_simseq_2seq_listtask_switchAB_fMRI,148023,23541,45213,2,35,75,B4,helmet,1,4$,4013.0322777,4355.0429531,342.0106754,0,0
2862,3#,1,51,61,21,11,31,42,Abstract_Concrete_6tasks_simseq_2seq_listtask_switchAB_fMRI,148023,23541,45213,2,36,76,A2,glasses,3,3#,4013.0322777,4368.0439059,355.0116282,0,0
7006,4$,0,52,61,21,12,31,42,Abstract_Concrete_6tasks_simseq_2seq_listtask_switchAB_fMRI,148023,23541,45213,2,37,77,B5,glasses,3,3#,4013.0322777,4378.043174,365.0108963,4385.0632933,372.0310156
2500,3#,1,52,61,22,12,31,41,Abstract_Concrete_6tasks_simseq_2seq_listtask_switchAB_fMRI,148023,23541,45213,2,38,78,A2,glasses,3,3#,4013.0322777,4393.0452469,380.0129692,0,0
5295,4$,1,52,61,21,11,31,41,Abstract_Concrete_6tasks_simseq_2seq_listtask_switchAB_fMRI,148023,23541,45213,2,39,79,B4,helmet,1,4$,4013.0322777,4403.042479,390.0102013,0,0
3528,7&,1,51,61,21,11,31,41,Abstract_Concrete_6tasks_simseq_2seq_listtask_switchAB_fMRI,148023,23541,45213,2,40,80,A4,weapon,5,7&,4013.0322777,4416.0440209,403.0117432,0,0
1194,7&,1,52,62,22,12,32,41,Abstract_Concrete_6tasks_simseq_2seq_listtask_switchAB_fMRI,148023,23541,45213,3,1,81,B1,weapon,5,7&,4486.9529116,4494.9633357,8.01042409999991,0,0
1555,9(,1,51,62,21,11,31,41,Abstract_Concrete_6tasks_simseq_2seq_listtask_switchAB_fMRI,148023,23541,45213,3,2,82,A1,vest,2,9(,4486.9529116,4503.964607,17.0116953999996,0,0
3526,4$,1,52,62,22,11,31,42,Abstract_Concrete_6tasks_simseq_2seq_listtask_switchAB_fMRI,148023,23541,45213,3,3,83,B4,helmet,1,4$,4486.9529116,4512.9651439,26.0122322999996,0,0
1862,9(,1,51,62,22,11,32,41,Abstract_Concrete_6tasks_simseq_2seq_listtask_switchAB_fMRI,148023,23541,45213,3,4,84,A1,vest,2,9(,4486.9529116,4523.9633487,37.0104370999998,0,0
2678,4$,1,52,62,22,12,31,41,Abstract_Concrete_6tasks_simseq_2seq_listtask_switchAB_fMRI,148023,23541,45213,3,5,85,B4,helmet,1,4$,4486.9529116,4532.9657306,46.0128189999996,0,0
2593,3#,1,51,61,22,12,31,41,Abstract_Concrete_6tasks_simseq_2seq_listtask_switchAB_fMRI,148023,23541,45213,3,6,86,A2,glasses,3,3#,4486.9529116,4542.9641423,56.0112306999999,0,0
2582,4$,1,51,61,21,11,31,41,Abstract_Concrete_6tasks_simseq_2seq_listtask_switchAB_fMRI,148023,23541,45213,3,7,87,B4,helmet,1,4$,4486.9529116,4552.9635974,66.0106857999999,0,0
1280,8*,1,51,61,22,11,31,42,Abstract_Concrete_6tasks_simseq_2seq_listtask_switchAB_fMRI,148023,23541,45213,3,8,88,A3,tools,6,8*,4486.9529116,4562.9651078,76.0121961999994,0,0
2293,9(,1,51,62,22,12,31,42,Abstract_Concrete_6tasks_simseq_2seq_listtask_switchAB_fMRI,148023,23541,45213,3,9,89,B3,vest,2,9(,4486.9529116,4571.9629085,85.0099968999994,0,0
1953,3#,1,51,61,22,11,31,41,Abstract_Concrete_6tasks_simseq_2seq_listtask_switchAB_fMRI,148023,23541,45213,3,10,90,A2,glasses,3,3#,4486.9529116,4581.9666756,95.0137639999994,0,0
932,7&,1,52,61,21,11,31,41,Abstract_Concrete_6tasks_simseq_2seq_listtask_switchAB_fMRI,148023,23541,45213,3,11,91,B1,weapon,5,7&,4486.9529116,4590.9643802,104.0114686,0,0
1394,8*,1,51,62,22,12,31,41,Abstract_Concrete_6tasks_simseq_2seq_listtask_switchAB_fMRI,148023,23541,45213,3,12,92,A3,tools,6,8*,4486.9529116,4598.9645051,112.011593499999,0,0
1877,8*,1,51,61,21,12,31,41,Abstract_Concrete_6tasks_simseq_2seq_listtask_switchAB_fMRI,148023,23541,45213,3,13,93,B2,tools,6,8*,4486.9529116,4607.9664752,121.0135636,0,0
2676,9(,1,52,62,22,12,32,41,Abstract_Concrete_6tasks_simseq_2seq_listtask_switchAB_fMRI,148023,23541,45213,3,14,94,A1,vest,2,9(,4486.9529116,4616.9634532,130.0105416,0,0
1364,9(,1,51,62,21,11,32,42,Abstract_Concrete_6tasks_simseq_2seq_listtask_switchAB_fMRI,148023,23541,45213,3,15,95,B3,vest,2,9(,4486.9529116,4626.9648611,140.0119495,0,0
4556,4$,1,51,61,21,12,32,42,Abstract_Concrete_6tasks_simseq_2seq_listtask_switchAB_fMRI,148023,23541,45213,3,16,96,A5,helmet,1,4$,4486.9529116,4635.9670672,149.0141556,0,0
4554,3#,1,51,62,22,11,32,42,Abstract_Concrete_6tasks_simseq_2seq_listtask_switchAB_fMRI,148023,23541,45213,3,17,97,B5,glasses,3,3#,4486.9529116,4647.966142,161.0132304,0,0
2375,7&,1,52,62,22,11,31,41,Abstract_Concrete_6tasks_simseq_2seq_listtask_switchAB_fMRI,148023,23541,45213,3,18,98,A4,weapon,5,7&,4486.9529116,4659.9643207,173.0114091,0,0
1274,8*,1,52,61,21,11,32,42,Abstract_Concrete_6tasks_simseq_2seq_listtask_switchAB_fMRI,148023,23541,45213,3,19,99,B2,tools,6,8*,4486.9529116,4669.9680251,183.0151135,0,0
2109,3#,0,51,62,22,11,32,41,Abstract_Concrete_6tasks_simseq_2seq_listtask_switchAB_fMRI,148023,23541,45213,3,20,100,A5,helmet,1,4$,4486.9529116,4678.965482,192.012570399999,4681.0900093,194.1370977
921,7&,1,52,61,22,12,32,42,Abstract_Concrete_6tasks_simseq_2seq_listtask_switchAB_fMRI,148023,23541,45213,3,21,101,B1,weapon,5,7&,4486.9529116,4688.9630494,202.0101378,0,0
7139,4$,1,52,62,22,12,31,41,Abstract_Concrete_6tasks_simseq_2seq_listtask_switchAB_fMRI,148023,23541,45213,3,22,102,A5,helmet,1,4$,4486.9529116,4696.9651461,210.0122345,0,0
2133,3#,1,52,62,21,11,32,42,Abstract_Concrete_6tasks_simseq_2seq_listtask_switchAB_fMRI,148023,23541,45213,3,23,103,B5,glasses,3,3#,4486.9529116,4711.963632,225.0107204,0,0
1093,8*,1,52,61,22,11,31,41,Abstract_Concrete_6tasks_simseq_2seq_listtask_switchAB_fMRI,148023,23541,45213,3,24,104,A3,tools,6,8*,4486.9529116,4721.9652212,235.0123096,0,0
1059,8*,1,51,61,22,12,31,42,Abstract_Concrete_6tasks_simseq_2seq_listtask_switchAB_fMRI,148023,23541,45213,3,25,105,B2,tools,6,8*,4486.9529116,4730.9659171,244.0130055,0,0
1862,7&,1,51,61,21,11,31,41,Abstract_Concrete_6tasks_simseq_2seq_listtask_switchAB_fMRI,148023,23541,45213,3,26,106,A4,weapon,5,7&,4486.9529116,4739.9646189,253.011707299999,0,0
3340,3#,1,51,61,21,11,31,41,Abstract_Concrete_6tasks_simseq_2seq_listtask_switchAB_fMRI,148023,23541,45213,3,27,107,B5,glasses,3,3#,4486.9529116,4748.9640723,262.0111607,0,0
3517,4$,1,51,62,21,12,31,41,Abstract_Concrete_6tasks_simseq_2seq_listtask_switchAB_fMRI,148023,23541,45213,3,28,108,A5,helmet,1,4$,4486.9529116,4759.9653935,273.012481899999,0,0
2400,9(,1,52,61,21,11,31,42,Abstract_Concrete_6tasks_simseq_2seq_listtask_switchAB_fMRI,148023,23541,45213,3,29,109,B3,vest,2,9(,4486.9529116,4770.9641432,284.0112316,0,0
1144,8*,1,52,61,22,12,32,41,Abstract_Concrete_6tasks_simseq_2seq_listtask_switchAB_fMRI,148023,23541,45213,3,30,110,A3,tools,6,8*,4486.9529116,4780.9651108,294.012199199999,0,0
1621,4$,0,52,62,21,11,31,41,Abstract_Concrete_6tasks_simseq_2seq_listtask_switchAB_fMRI,148023,23541,45213,3,31,111,B5,glasses,3,3#,4486.9529116,4789.9643379,303.0114263,4791.5962581,304.6433465
1512,9(,1,52,62,21,11,32,42,Abstract_Concrete_6tasks_simseq_2seq_listtask_switchAB_fMRI,148023,23541,45213,3,32,112,A1,vest,2,9(,4486.9529116,4798.9625433,312.0096317,0,0
1140,8*,1,51,62,22,11,31,41,Abstract_Concrete_6tasks_simseq_2seq_listtask_switchAB_fMRI,148023,23541,45213,3,33,113,B2,tools,6,8*,4486.9529116,4807.9645978,321.0116862,0,0
1268,3#,1,52,61,22,12,32,41,Abstract_Concrete_6tasks_simseq_2seq_listtask_switchAB_fMRI,148023,23541,45213,3,34,114,A2,glasses,3,3#,4486.9529116,4816.9661403,330.0132287,0,0
2119,9(,1,52,62,21,11,31,42,Abstract_Concrete_6tasks_simseq_2seq_listtask_switchAB_fMRI,148023,23541,45213,3,35,115,B3,vest,2,9(,4486.9529116,4825.9656093,339.0126977,0,0
2623,7&,1,52,62,22,12,32,41,Abstract_Concrete_6tasks_simseq_2seq_listtask_switchAB_fMRI,148023,23541,45213,3,36,116,A4,weapon,5,7&,4486.9529116,4835.9639161,349.011004499999,0,0
1143,7&,1,51,61,21,12,31,42,Abstract_Concrete_6tasks_simseq_2seq_listtask_switchAB_fMRI,148023,23541,45213,3,37,117,B1,weapon,5,7&,4486.9529116,4845.9658657,359.0129541,0,0
1199,3#,1,52,61,21,12,31,41,Abstract_Concrete_6tasks_simseq_2seq_listtask_switchAB_fMRI,148023,23541,45213,3,38,118,A2,glasses,3,3#,4486.9529116,4854.9667781,368.013866499999,0,0
2895,4$,1,51,62,21,11,32,41,Abstract_Concrete_6tasks_simseq_2seq_listtask_switchAB_fMRI,148023,23541,45213,3,39,119,B4,helmet,1,4$,4486.9529116,4863.9652728,377.0123612,0,0
2096,7&,1,51,62,22,11,31,42,Abstract_Concrete_6tasks_simseq_2seq_listtask_switchAB_fMRI,148023,23541,45213,3,40,120,A4,weapon,5,7&,4486.9529116,4873.9641967,387.011285099999,0,0
1484,9(,1,51,61,22,12,31,42,Abstract_Concrete_6tasks_simseq_2seq_listtask_switchAB_fMRI,148023,23541,45213,4,1,121,B3,vest,2,9(,4999.5437448,5007.5550395,8.01129469999978,0,0
3328,7&,1,52,62,22,12,31,41,Abstract_Concrete_6tasks_simseq_2seq_listtask_switchAB_fMRI,148023,23541,45213,4,2,122,A4,weapon,5,7&,4999.5437448,5016.5550259,17.0112810999999,0,0
1166,8*,1,51,62,22,12,31,42,Abstract_Concrete_6tasks_simseq_2seq_listtask_switchAB_fMRI,148023,23541,45213,4,3,123,B2,tools,6,8*,4999.5437448,5027.5571581,28.0134133000001,0,0
1106,7&,1,52,62,21,12,32,42,Abstract_Concrete_6tasks_simseq_2seq_listtask_switchAB_fMRI,148023,23541,45213,4,4,124,A4,weapon,5,7&,4999.5437448,5036.5550376,37.0112927999999,0,0
1177,9(,1,51,61,21,12,31,42,Abstract_Concrete_6tasks_simseq_2seq_listtask_switchAB_fMRI,148023,23541,45213,4,5,125,B3,vest,2,9(,4999.5437448,5045.5549023,46.0111575000001,0,0
1144,9(,1,51,61,21,12,31,41,Abstract_Concrete_6tasks_simseq_2seq_listtask_switchAB_fMRI,148023,23541,45213,4,6,126,A1,vest,2,9(,4999.5437448,5054.5552231,55.0114782999999,0,0
878,7&,1,52,61,21,12,32,42,Abstract_Concrete_6tasks_simseq_2seq_listtask_switchAB_fMRI,148023,23541,45213,4,7,127,B1,weapon,5,7&,4999.5437448,5063.5555667,64.0118218999996,0,0
1172,9(,1,52,62,22,12,31,42,Abstract_Concrete_6tasks_simseq_2seq_listtask_switchAB_fMRI,148023,23541,45213,4,8,128,A1,vest,2,9(,4999.5437448,5071.5550411,72.0112963000001,0,0
872,7&,1,52,61,22,12,31,41,Abstract_Concrete_6tasks_simseq_2seq_listtask_switchAB_fMRI,148023,23541,45213,4,9,129,B1,weapon,5,7&,4999.5437448,5080.5571497,81.0134048999998,0,0
921,9(,1,51,61,22,11,32,41,Abstract_Concrete_6tasks_simseq_2seq_listtask_switchAB_fMRI,148023,23541,45213,4,10,130,A1,vest,2,9(,4999.5437448,5088.5564839,89.0127390999996,0,0
1197,3#,1,51,61,21,11,31,42,Abstract_Concrete_6tasks_simseq_2seq_listtask_switchAB_fMRI,148023,23541,45213,4,11,131,B5,glasses,3,3#,4999.5437448,5096.554599,97.0108541999998,0,0
724,7&,1,51,61,21,11,32,41,Abstract_Concrete_6tasks_simseq_2seq_listtask_switchAB_fMRI,148023,23541,45213,4,12,132,A4,weapon,5,7&,4999.5437448,5105.5571261,106.013381299999,0,0
2292,4$,1,52,62,21,11,31,41,Abstract_Concrete_6tasks_simseq_2seq_listtask_switchAB_fMRI,148023,23541,45213,4,13,133,B4,helmet,1,4$,4999.5437448,5113.555287,114.0115422,0,0
1802,3#,1,51,61,21,12,31,41,Abstract_Concrete_6tasks_simseq_2seq_listtask_switchAB_fMRI,148023,23541,45213,4,14,134,A2,glasses,3,3#,4999.5437448,5123.5560192,124.0122744,0,0
4007,3#,1,52,62,22,12,31,42,Abstract_Concrete_6tasks_simseq_2seq_listtask_switchAB_fMRI,148023,23541,45213,4,15,135,B5,glasses,3,3#,4999.5437448,5132.5551643,133.0114195,0,0
1809,4$,1,52,62,21,12,32,42,Abstract_Concrete_6tasks_simseq_2seq_listtask_switchAB_fMRI,148023,23541,45213,4,16,136,A5,helmet,1,4$,4999.5437448,5144.5562721,145.012527299999,0,0
1751,3#,1,52,62,22,11,31,42,Abstract_Concrete_6tasks_simseq_2seq_listtask_switchAB_fMRI,148023,23541,45213,4,17,137,B5,glasses,3,3#,4999.5437448,5153.5554737,154.0117289,0,0
2047,7&,1,52,61,22,12,32,42,Abstract_Concrete_6tasks_simseq_2seq_listtask_switchAB_fMRI,148023,23541,45213,4,18,138,A4,weapon,5,7&,4999.5437448,5162.5556815,163.0119367,0,0
1394,4$,1,51,62,21,12,31,41,Abstract_Concrete_6tasks_simseq_2seq_listtask_switchAB_fMRI,148023,23541,45213,4,19,139,B4,helmet,1,4$,4999.5437448,5172.556636,173.0128912,0,0
1229,8*,1,52,61,22,11,32,41,Abstract_Concrete_6tasks_simseq_2seq_listtask_switchAB_fMRI,148023,23541,45213,4,20,140,A3,tools,6,8*,4999.5437448,5181.5557872,182.0120424,0,0
1418,7&,1,51,62,22,12,31,42,Abstract_Concrete_6tasks_simseq_2seq_listtask_switchAB_fMRI,148023,23541,45213,4,21,141,B1,weapon,5,7&,4999.5437448,5190.5549503,191.0112055,0,0
1837,8*,0,51,61,22,11,31,41,Abstract_Concrete_6tasks_simseq_2seq_listtask_switchAB_fMRI,148023,23541,45213,4,22,142,A2,glasses,3,3#,4999.5437448,5199.5557917,200.012046899999,5201.4083667,201.8646219
1356,8*,1,52,62,22,11,32,42,Abstract_Concrete_6tasks_simseq_2seq_listtask_switchAB_fMRI,148023,23541,45213,4,23,143,B2,tools,6,8*,4999.5437448,5208.5541338,209.010389,0,0
2268,4$,1,51,61,21,11,31,42,Abstract_Concrete_6tasks_simseq_2seq_listtask_switchAB_fMRI,148023,23541,45213,4,24,144,A5,helmet,1,4$,4999.5437448,5217.5552231,218.0114783,0,0
1476,9(,1,51,61,21,11,31,42,Abstract_Concrete_6tasks_simseq_2seq_listtask_switchAB_fMRI,148023,23541,45213,4,25,145,B3,vest,2,9(,4999.5437448,5227.5568389,228.0130941,0,0
1247,4$,1,52,61,22,12,31,41,Abstract_Concrete_6tasks_simseq_2seq_listtask_switchAB_fMRI,148023,23541,45213,4,26,146,A5,helmet,1,4$,4999.5437448,5236.5544983,237.0107535,0,0
1250,7&,1,51,61,22,11,31,42,Abstract_Concrete_6tasks_simseq_2seq_listtask_switchAB_fMRI,148023,23541,45213,4,27,147,B1,weapon,5,7&,4999.5437448,5245.5569624,246.0132176,0,0
2372,8*,1,52,62,22,11,31,42,Abstract_Concrete_6tasks_simseq_2seq_listtask_switchAB_fMRI,148023,23541,45213,4,28,148,A3,tools,6,8*,4999.5437448,5254.5546889,255.0109441,0,0
1864,9(,1,52,61,22,12,32,41,Abstract_Concrete_6tasks_simseq_2seq_listtask_switchAB_fMRI,148023,23541,45213,4,29,149,B3,vest,2,9(,4999.5437448,5264.5551336,265.0113888,0,0
1128,3#,1,51,62,22,11,32,42,Abstract_Concrete_6tasks_simseq_2seq_listtask_switchAB_fMRI,148023,23541,45213,4,30,150,A2,glasses,3,3#,4999.5437448,5273.5552775,274.011532699999,0,0
1453,8*,1,52,61,22,12,32,41,Abstract_Concrete_6tasks_simseq_2seq_listtask_switchAB_fMRI,148023,23541,45213,4,31,151,B2,tools,6,8*,4999.5437448,5282.5576729,283.0139281,0,0
1301,8*,1,52,61,22,12,31,41,Abstract_Concrete_6tasks_simseq_2seq_listtask_switchAB_fMRI,148023,23541,45213,4,32,152,A3,tools,6,8*,4999.5437448,5291.5569908,292.013246,0,0
2195,3#,1,51,61,22,12,32,41,Abstract_Concrete_6tasks_simseq_2seq_listtask_switchAB_fMRI,148023,23541,45213,4,33,153,B5,glasses,3,3#,4999.5437448,5300.5546036,301.010858799999,0,0
1338,4$,1,52,61,21,12,32,42,Abstract_Concrete_6tasks_simseq_2seq_listtask_switchAB_fMRI,148023,23541,45213,4,34,154,A5,helmet,1,4$,4999.5437448,5310.555188,311.0114432,0,0
972,8*,1,51,62,21,11,32,41,Abstract_Concrete_6tasks_simseq_2seq_listtask_switchAB_fMRI,148023,23541,45213,4,35,155,B2,tools,6,8*,4999.5437448,5319.5543183,320.0105735,0,0
3869,3#,1,51,61,22,11,31,42,Abstract_Concrete_6tasks_simseq_2seq_listtask_switchAB_fMRI,148023,23541,45213,4,36,156,A2,glasses,3,3#,4999.5437448,5327.5538976,328.0101528,0,0
3437,4$,1,52,62,22,11,31,41,Abstract_Concrete_6tasks_simseq_2seq_listtask_switchAB_fMRI,148023,23541,45213,4,37,157,B4,helmet,1,4$,4999.5437448,5338.5556495,339.0119047,0,0
849,8*,1,51,61,21,11,31,41,Abstract_Concrete_6tasks_simseq_2seq_listtask_switchAB_fMRI,148023,23541,45213,4,38,158,A3,tools,6,8*,4999.5437448,5349.5552192,350.011474399999,0,0
2118,4$,1,52,61,21,12,31,41,Abstract_Concrete_6tasks_simseq_2seq_listtask_switchAB_fMRI,148023,23541,45213,4,39,159,B4,helmet,1,4$,4999.5437448,5357.5547937,358.0110489,0,0
1066,9(,1,52,61,22,11,31,41,Abstract_Concrete_6tasks_simseq_2seq_listtask_switchAB_fMRI,148023,23541,45213,4,40,160,A1,vest,2,9(,4999.5437448,5367.556365,368.0126202,0,0
837,7&,1,51,62,21,12,31,41,Abstract_Concrete_6tasks_simseq_2seq_listtask_switchAB_fMRI,148023,23541,45213,5,1,161,B1,weapon,5,7&,5459.5040756,5467.51323613467,8.00916053467245,0,0
1406,3#,1,52,61,21,12,31,42,Abstract_Concrete_6tasks_simseq_2seq_listtask_switchAB_fMRI,148023,23541,45213,5,2,162,A2,glasses,3,3#,5459.5040756,5475.517067,16.0129913999999,0,0
1674,3#,1,52,62,21,11,32,42,Abstract_Concrete_6tasks_simseq_2seq_listtask_switchAB_fMRI,148023,23541,45213,5,3,163,B5,glasses,3,3#,5459.5040756,5484.5184453,25.0143697000003,0,0
827,8*,1,51,61,21,12,31,42,Abstract_Concrete_6tasks_simseq_2seq_listtask_switchAB_fMRI,148023,23541,45213,5,4,164,A3,tools,6,8*,5459.5040756,5493.5149078,34.0108322000006,0,0
2713,3#,1,51,61,21,11,31,42,Abstract_Concrete_6tasks_simseq_2seq_listtask_switchAB_fMRI,148023,23541,45213,5,5,165,B5,glasses,3,3#,5459.5040756,5501.5171282,42.0130526000003,0,0
1145,8*,1,51,61,21,12,31,42,Abstract_Concrete_6tasks_simseq_2seq_listtask_switchAB_fMRI,148023,23541,45213,5,6,166,A3,tools,6,8*,5459.5040756,5511.5152836,52.0112079999999,0,0
1127,7&,1,52,62,22,12,31,42,Abstract_Concrete_6tasks_simseq_2seq_listtask_switchAB_fMRI,148023,23541,45213,5,7,167,B1,weapon,5,7&,5459.5040756,5520.516037,61.0119614000005,0,0
965,3#,1,52,61,22,11,32,42,Abstract_Concrete_6tasks_simseq_2seq_listtask_switchAB_fMRI,148023,23541,45213,5,8,168,A2,glasses,3,3#,5459.5040756,5529.515186,70.0111103999998,0,0
1596,9(,1,52,62,22,12,31,41,Abstract_Concrete_6tasks_simseq_2seq_listtask_switchAB_fMRI,148023,23541,45213,5,9,169,B3,vest,2,9(,5459.5040756,5537.5158953,78.0118197000002,0,0
1036,3#,1,51,61,22,11,32,42,Abstract_Concrete_6tasks_simseq_2seq_listtask_switchAB_fMRI,148023,23541,45213,5,10,170,A2,glasses,3,3#,5459.5040756,5546.5169019,87.0128263000006,0,0
1451,4$,1,51,61,22,11,31,41,Abstract_Concrete_6tasks_simseq_2seq_listtask_switchAB_fMRI,148023,23541,45213,5,11,171,B4,helmet,1,4$,5459.5040756,5555.5165468,96.0124711999997,0,0
826,8*,1,52,62,21,11,31,41,Abstract_Concrete_6tasks_simseq_2seq_listtask_switchAB_fMRI,148023,23541,45213,5,12,172,A3,tools,6,8*,5459.5040756,5564.5173097,105.0132341,0,0
1180,8*,1,52,62,22,11,32,42,Abstract_Concrete_6tasks_simseq_2seq_listtask_switchAB_fMRI,148023,23541,45213,5,13,173,B2,tools,6,8*,5459.5040756,5572.5158551,113.011779500001,0,0
1068,9(,1,51,61,21,12,31,41,Abstract_Concrete_6tasks_simseq_2seq_listtask_switchAB_fMRI,148023,23541,45213,5,14,174,A1,vest,2,9(,5459.5040756,5581.517449,122.0133734,0,0
1655,3#,1,52,62,21,12,32,42,Abstract_Concrete_6tasks_simseq_2seq_listtask_switchAB_fMRI,148023,23541,45213,5,15,175,B5,glasses,3,3#,5459.5040756,5590.5174155,131.013339900001,0,0
827,8*,1,51,62,21,12,31,41,Abstract_Concrete_6tasks_simseq_2seq_listtask_switchAB_fMRI,148023,23541,45213,5,16,176,A3,tools,6,8*,5459.5040756,5599.5156771,140.0116015,0,0
1785,9(,1,52,61,22,12,32,42,Abstract_Concrete_6tasks_simseq_2seq_listtask_switchAB_fMRI,148023,23541,45213,5,17,177,B3,vest,2,9(,5459.5040756,5607.5161169,148.0120413,0,0
1030,9(,1,51,61,22,11,31,42,Abstract_Concrete_6tasks_simseq_2seq_listtask_switchAB_fMRI,148023,23541,45213,5,18,178,A1,vest,2,9(,5459.5040756,5616.517415,157.0133394,0,0
1813,4$,1,52,61,22,12,32,41,Abstract_Concrete_6tasks_simseq_2seq_listtask_switchAB_fMRI,148023,23541,45213,5,19,179,B4,helmet,1,4$,5459.5040756,5625.5177107,166.0136351,0,0
1381,7&,1,51,61,22,12,32,41,Abstract_Concrete_6tasks_simseq_2seq_listtask_switchAB_fMRI,148023,23541,45213,5,20,180,A4,weapon,5,7&,5459.5040756,5634.5145915,175.0105159,0,0
1622,3#,1,52,62,22,12,32,41,Abstract_Concrete_6tasks_simseq_2seq_listtask_switchAB_fMRI,148023,23541,45213,5,21,181,B5,glasses,3,3#,5459.5040756,5643.5177861,184.0137105,0,0
1078,3#,1,52,61,21,11,31,41,Abstract_Concrete_6tasks_simseq_2seq_listtask_switchAB_fMRI,148023,23541,45213,5,22,182,A2,glasses,3,3#,5459.5040756,5652.5169177,193.0128421,0,0
1653,8*,1,52,61,21,11,32,41,Abstract_Concrete_6tasks_simseq_2seq_listtask_switchAB_fMRI,148023,23541,45213,5,23,183,B2,tools,6,8*,5459.5040756,5661.5163689,202.0122933,0,0
1259,4$,1,51,62,22,12,31,41,Abstract_Concrete_6tasks_simseq_2seq_listtask_switchAB_fMRI,148023,23541,45213,5,24,184,A5,helmet,1,4$,5459.5040756,5670.5172736,211.013198000001,0,0
721,7&,1,52,61,22,11,31,41,Abstract_Concrete_6tasks_simseq_2seq_listtask_switchAB_fMRI,148023,23541,45213,5,25,185,B1,weapon,5,7&,5459.5040756,5679.5177539,220.0136783,0,0
957,9(,1,52,61,21,12,31,41,Abstract_Concrete_6tasks_simseq_2seq_listtask_switchAB_fMRI,148023,23541,45213,5,26,186,A1,vest,2,9(,5459.5040756,5687.5129914,228.0089158,0,0
2053,9(,1,51,62,22,11,31,41,Abstract_Concrete_6tasks_simseq_2seq_listtask_switchAB_fMRI,148023,23541,45213,5,27,187,B3,vest,2,9(,5459.5040756,5695.5146844,236.0106088,0,0
920,7&,1,51,62,21,11,31,42,Abstract_Concrete_6tasks_simseq_2seq_listtask_switchAB_fMRI,148023,23541,45213,5,28,188,A4,weapon,5,7&,5459.5040756,5705.5161734,246.0120978,0,0
1151,8*,1,52,61,22,12,31,41,Abstract_Concrete_6tasks_simseq_2seq_listtask_switchAB_fMRI,148023,23541,45213,5,29,189,B2,tools,6,8*,5459.5040756,5713.5159597,254.0118841,0,0
940,9(,1,52,61,21,11,31,41,Abstract_Concrete_6tasks_simseq_2seq_listtask_switchAB_fMRI,148023,23541,45213,5,30,190,A1,vest,2,9(,5459.5040756,5722.5179987,263.0139231,0,0
1024,4$,1,52,61,22,12,32,42,Abstract_Concrete_6tasks_simseq_2seq_listtask_switchAB_fMRI,148023,23541,45213,5,31,191,B4,helmet,1,4$,5459.5040756,5730.5149663,271.0108907,0,0
1723,4$,1,51,62,21,12,31,41,Abstract_Concrete_6tasks_simseq_2seq_listtask_switchAB_fMRI,148023,23541,45213,5,32,192,A5,helmet,1,4$,5459.5040756,5739.5158559,280.0117803,0,0
2779,9(,1,51,62,21,12,32,41,Abstract_Concrete_6tasks_simseq_2seq_listtask_switchAB_fMRI,148023,23541,45213,5,33,193,B3,vest,2,9(,5459.5040756,5748.5170482,289.0129726,0,0
970,4$,1,52,61,21,12,32,41,Abstract_Concrete_6tasks_simseq_2seq_listtask_switchAB_fMRI,148023,23541,45213,5,34,194,A5,helmet,1,4$,5459.5040756,5758.5140926,299.010017000001,0,0
1258,7&,1,52,62,21,11,31,41,Abstract_Concrete_6tasks_simseq_2seq_listtask_switchAB_fMRI,148023,23541,45213,5,35,195,B1,weapon,5,7&,5459.5040756,5766.5150722,307.0109966,0,0
975,4$,1,51,62,21,12,32,41,Abstract_Concrete_6tasks_simseq_2seq_listtask_switchAB_fMRI,148023,23541,45213,5,36,196,A5,helmet,1,4$,5459.5040756,5775.5174893,316.0134137,0,0
1494,4$,1,52,61,22,11,32,41,Abstract_Concrete_6tasks_simseq_2seq_listtask_switchAB_fMRI,148023,23541,45213,5,37,197,B4,helmet,1,4$,5459.5040756,5783.514571,324.0104954,0,0
610,7&,1,51,62,22,12,31,41,Abstract_Concrete_6tasks_simseq_2seq_listtask_switchAB_fMRI,148023,23541,45213,5,38,198,A4,weapon,5,7&,5459.5040756,5792.5147912,333.0107156,0,0
867,8*,1,51,62,22,11,31,42,Abstract_Concrete_6tasks_simseq_2seq_listtask_switchAB_fMRI,148023,23541,45213,5,39,199,B2,tools,6,8*,5459.5040756,5800.5157268,341.0116512,0,0
1011,7&,1,52,62,21,11,32,41,Abstract_Concrete_6tasks_simseq_2seq_listtask_switchAB_fMRI,148023,23541,45213,5,40,200,A4,weapon,5,7&,5459.5040756,5808.5150016,349.010926,0,0
3060,3#,1,52,61,22,11,32,41,Abstract_Concrete_6tasks_simseq_2seq_listtask_switchAB_fMRI,148023,23541,45213,6,1,201,B5,glasses,3,3#,5865.1548563,5873.1682319,8.01337560000047,0,0
1187,8*,1,51,62,22,11,31,41,Abstract_Concrete_6tasks_simseq_2seq_listtask_switchAB_fMRI,148023,23541,45213,6,2,202,A3,tools,6,8*,5865.1548563,5884.1662598,19.0114035000006,0,0
1417,3#,1,51,62,21,11,31,42,Abstract_Concrete_6tasks_simseq_2seq_listtask_switchAB_fMRI,148023,23541,45213,6,3,203,B5,glasses,3,3#,5865.1548563,5893.1663622,28.0115059,0,0
841,7&,1,51,62,22,11,32,41,Abstract_Concrete_6tasks_simseq_2seq_listtask_switchAB_fMRI,148023,23541,45213,6,4,204,A4,weapon,5,7&,5865.1548563,5902.1681149,37.0132586,0,0
635,7&,1,52,62,22,12,31,41,Abstract_Concrete_6tasks_simseq_2seq_listtask_switchAB_fMRI,148023,23541,45213,6,5,205,B1,weapon,5,7&,5865.1548563,5910.1660046,45.0111483000001,0,0
1255,4$,1,51,62,21,12,32,41,Abstract_Concrete_6tasks_simseq_2seq_listtask_switchAB_fMRI,148023,23541,45213,6,6,206,A5,helmet,1,4$,5865.1548563,5918.1667851,53.0119288000005,0,0
1599,4$,1,51,62,22,12,31,42,Abstract_Concrete_6tasks_simseq_2seq_listtask_switchAB_fMRI,148023,23541,45213,6,7,207,B4,helmet,1,4$,5865.1548563,5927.1718163,62.0169599999999,0,0
959,3#,1,51,62,21,11,32,42,Abstract_Concrete_6tasks_simseq_2seq_listtask_switchAB_fMRI,148023,23541,45213,6,8,208,A2,glasses,3,3#,5865.1548563,5936.1664775,71.0116212000003,0,0
969,8*,1,51,61,22,11,32,41,Abstract_Concrete_6tasks_simseq_2seq_listtask_switchAB_fMRI,148023,23541,45213,6,9,209,B2,tools,6,8*,5865.1548563,5944.1665493,79.0116930000004,0,0
1407,4$,1,52,61,22,12,31,42,Abstract_Concrete_6tasks_simseq_2seq_listtask_switchAB_fMRI,148023,23541,45213,6,10,210,A5,helmet,1,4$,5865.1548563,5952.1657174,87.0108611000005,0,0
641,7&,1,52,62,22,11,32,41,Abstract_Concrete_6tasks_simseq_2seq_listtask_switchAB_fMRI,148023,23541,45213,6,11,211,B1,weapon,5,7&,5865.1548563,5961.1681209,96.0132646000002,0,0
1010,4$,1,52,61,21,12,32,41,Abstract_Concrete_6tasks_simseq_2seq_listtask_switchAB_fMRI,148023,23541,45213,6,12,212,A5,helmet,1,4$,5865.1548563,5969.1666644,104.0118081,0,0
702,7&,1,52,61,22,11,32,42,Abstract_Concrete_6tasks_simseq_2seq_listtask_switchAB_fMRI,148023,23541,45213,6,13,213,B1,weapon,5,7&,5865.1548563,5978.1687904,113.0139341,0,0
785,8*,1,51,62,21,12,31,41,Abstract_Concrete_6tasks_simseq_2seq_listtask_switchAB_fMRI,148023,23541,45213,6,14,214,A3,tools,6,8*,5865.1548563,5986.1664022,121.011545900001,0,0
1104,4$,1,52,62,21,11,31,41,Abstract_Concrete_6tasks_simseq_2seq_listtask_switchAB_fMRI,148023,23541,45213,6,15,215,B4,helmet,1,4$,5865.1548563,5994.1660857,129.0112294,0,0
962,3#,1,51,61,22,12,32,42,Abstract_Concrete_6tasks_simseq_2seq_listtask_switchAB_fMRI,148023,23541,45213,6,16,216,A2,glasses,3,3#,5865.1548563,6003.1694054,138.0145491,0,0
1619,9(,1,52,62,22,11,32,41,Abstract_Concrete_6tasks_simseq_2seq_listtask_switchAB_fMRI,148023,23541,45213,6,17,217,B3,vest,2,9(,5865.1548563,6011.1660368,146.011180500001,0,0
893,8*,1,52,61,21,12,32,41,Abstract_Concrete_6tasks_simseq_2seq_listtask_switchAB_fMRI,148023,23541,45213,6,18,218,A3,tools,6,8*,5865.1548563,6020.16801,155.013153700001,0,0
1488,9(,1,51,61,21,11,31,41,Abstract_Concrete_6tasks_simseq_2seq_listtask_switchAB_fMRI,148023,23541,45213,6,19,219,B3,vest,2,9(,5865.1548563,6028.1669277,163.0120714,0,0
1073,9(,1,52,61,21,11,32,41,Abstract_Concrete_6tasks_simseq_2seq_listtask_switchAB_fMRI,148023,23541,45213,6,20,220,A1,vest,2,9(,5865.1548563,6037.1677795,172.0129232,0,0
2108,8*,1,52,61,22,12,32,42,Abstract_Concrete_6tasks_simseq_2seq_listtask_switchAB_fMRI,148023,23541,45213,6,21,221,B2,tools,6,8*,5865.1548563,6046.1666131,181.011756800001,0,0
2156,7&,1,52,61,21,12,32,42,Abstract_Concrete_6tasks_simseq_2seq_listtask_switchAB_fMRI,148023,23541,45213,6,22,222,A4,weapon,5,7&,5865.1548563,6056.166242,191.011385700001,0,0
1313,8*,1,51,61,21,12,32,41,Abstract_Concrete_6tasks_simseq_2seq_listtask_switchAB_fMRI,148023,23541,45213,6,23,223,B2,tools,6,8*,5865.1548563,6066.1682379,201.013381600001,0,0
1199,4$,1,51,62,22,11,31,42,Abstract_Concrete_6tasks_simseq_2seq_listtask_switchAB_fMRI,148023,23541,45213,6,24,224,A5,helmet,1,4$,5865.1548563,6075.1686501,210.013793800001,0,0
867,8*,1,51,61,22,11,32,41,Abstract_Concrete_6tasks_simseq_2seq_listtask_switchAB_fMRI,148023,23541,45213,6,25,225,B2,tools,6,8*,5865.1548563,6084.1683152,219.0134589,0,0
1249,3#,1,51,62,22,11,31,42,Abstract_Concrete_6tasks_simseq_2seq_listtask_switchAB_fMRI,148023,23541,45213,6,26,226,A2,glasses,3,3#,5865.1548563,6092.1671546,227.0122983,0,0
1316,4$,1,51,62,21,11,31,41,Abstract_Concrete_6tasks_simseq_2seq_listtask_switchAB_fMRI,148023,23541,45213,6,27,227,B4,helmet,1,4$,5865.1548563,6101.165629,236.0107727,0,0
862,9(,1,51,62,21,12,32,42,Abstract_Concrete_6tasks_simseq_2seq_listtask_switchAB_fMRI,148023,23541,45213,6,28,228,A1,vest,2,9(,5865.1548563,6110.1678104,245.012954100001,0,0
1528,3#,1,52,61,22,12,31,41,Abstract_Concrete_6tasks_simseq_2seq_listtask_switchAB_fMRI,148023,23541,45213,6,29,229,B5,glasses,3,3#,5865.1548563,6118.1659248,253.0110685,0,0
981,7&,1,51,62,21,12,32,42,Abstract_Concrete_6tasks_simseq_2seq_listtask_switchAB_fMRI,148023,23541,45213,6,30,230,A4,weapon,5,7&,5865.1548563,6127.1659322,262.0110759,0,0
828,7&,1,52,62,22,12,31,41,Abstract_Concrete_6tasks_simseq_2seq_listtask_switchAB_fMRI,148023,23541,45213,6,31,231,B1,weapon,5,7&,5865.1548563,6135.1649068,270.0100505,0,0
878,8*,1,52,62,21,11,32,41,Abstract_Concrete_6tasks_simseq_2seq_listtask_switchAB_fMRI,148023,23541,45213,6,32,232,A3,tools,6,8*,5865.1548563,6143.1661211,278.0112648,0,0
1200,3#,1,52,61,21,12,31,41,Abstract_Concrete_6tasks_simseq_2seq_listtask_switchAB_fMRI,148023,23541,45213,6,33,233,B5,glasses,3,3#,5865.1548563,6151.1659355,286.0110792,0,0
861,7&,1,51,62,21,12,32,42,Abstract_Concrete_6tasks_simseq_2seq_listtask_switchAB_fMRI,148023,23541,45213,6,34,234,A4,weapon,5,7&,5865.1548563,6160.1654138,295.010557500001,0,0
1117,9(,1,51,61,22,11,32,42,Abstract_Concrete_6tasks_simseq_2seq_listtask_switchAB_fMRI,148023,23541,45213,6,35,235,B3,vest,2,9(,5865.1548563,6168.1653642,303.0105079,0,0
1175,9(,1,52,61,22,12,31,41,Abstract_Concrete_6tasks_simseq_2seq_listtask_switchAB_fMRI,148023,23541,45213,6,36,236,A1,vest,2,9(,5865.1548563,6177.1669117,312.0120554,0,0
1107,9(,1,51,62,22,11,31,41,Abstract_Concrete_6tasks_simseq_2seq_listtask_switchAB_fMRI,148023,23541,45213,6,37,237,B3,vest,2,9(,5865.1548563,6186.1654635,321.010607200001,0,0
969,9(,1,52,62,21,12,32,41,Abstract_Concrete_6tasks_simseq_2seq_listtask_switchAB_fMRI,148023,23541,45213,6,38,238,A1,vest,2,9(,5865.1548563,6195.1668519,330.011995600001,0,0
1280,4$,1,51,61,22,12,31,42,Abstract_Concrete_6tasks_simseq_2seq_listtask_switchAB_fMRI,148023,23541,45213,6,39,239,B4,helmet,1,4$,5865.1548563,6203.1647515,338.009895200001,0,0
1119,3#,1,52,62,21,12,31,42,Abstract_Concrete_6tasks_simseq_2seq_listtask_switchAB_fMRI,148023,23541,45213,6,40,240,A2,glasses,3,3#,5865.1548563,6212.1658604,347.011004100001,0,0
