rt1,resp1,correct1,features_1,features_2,features_3,features_4,features_5,features_6,ExpName,subNo,seqA,seqB,block,trial,trialnum,cuetype,task,subtaskcode,corr_resp1,onsetTime_s,onsetTime_cue,onset_cue,onsetTime_cue_fb,onset_cue_fb
6384,8*,1,51,11,61,32,42,21,Abstract_Concrete_6tasks_simseq_2seq_listtask_switchAB_fMRI,169609,45123,21435,1,1,1,A3,helmet,1,8*,3241.86981,3249.87565404185,8.00584404184883,0,0
2367,8*,1,52,12,61,32,41,21,Abstract_Concrete_6tasks_simseq_2seq_listtask_switchAB_fMRI,169609,45123,21435,1,2,2,B2,helmet,1,8*,3241.86981,3263.8809504,22.0111403999999,0,0
4700,4$,1,52,11,61,31,41,22,Abstract_Concrete_6tasks_simseq_2seq_listtask_switchAB_fMRI,169609,45123,21435,1,3,3,A5,glasses,3,4$,3241.86981,3273.8829917,32.0131816999997,0,0
2214,8*,1,51,12,62,32,42,21,Abstract_Concrete_6tasks_simseq_2seq_listtask_switchAB_fMRI,169609,45123,21435,1,4,4,B2,helmet,1,8*,3241.86981,3285.8813207,44.0115106999997,0,0
0,,0,51,12,62,31,41,22,Abstract_Concrete_6tasks_simseq_2seq_listtask_switchAB_fMRI,169609,45123,21435,1,5,5,A2,tools,6,9(,3241.86981,3295.8826411,54.0128310999999,3304.9146521,63.0448420999996
4214,7&,1,51,11,61,31,41,21,Abstract_Concrete_6tasks_simseq_2seq_listtask_switchAB_fMRI,169609,45123,21435,1,6,6,B3,weapon,5,7&,3241.86981,3312.8807748,71.0109647999998,0,0
3361,9(,1,52,11,62,32,42,21,Abstract_Concrete_6tasks_simseq_2seq_listtask_switchAB_fMRI,169609,45123,21435,1,7,7,A2,tools,6,9(,3241.86981,3324.8824346,83.0126246,0,0
3330,4$,1,52,12,61,32,41,22,Abstract_Concrete_6tasks_simseq_2seq_listtask_switchAB_fMRI,169609,45123,21435,1,8,8,B4,glasses,3,4$,3241.86981,3335.8825615,94.0127514999999,0,0
3425,4$,1,51,11,62,31,41,22,Abstract_Concrete_6tasks_simseq_2seq_listtask_switchAB_fMRI,169609,45123,21435,1,9,9,A5,glasses,3,4$,3241.86981,3346.8820655,105.0122555,0,0
3471,4$,1,51,11,62,32,42,22,Abstract_Concrete_6tasks_simseq_2seq_listtask_switchAB_fMRI,169609,45123,21435,1,10,10,B4,glasses,3,4$,3241.86981,3357.8832162,116.0134062,0,0
2033,7&,1,51,11,61,32,42,21,Abstract_Concrete_6tasks_simseq_2seq_listtask_switchAB_fMRI,169609,45123,21435,1,11,11,A1,weapon,5,7&,3241.86981,3368.8811627,127.0113527,0,0
5012,9(,1,51,11,61,32,42,22,Abstract_Concrete_6tasks_simseq_2seq_listtask_switchAB_fMRI,169609,45123,21435,1,12,12,B5,tools,6,9(,3241.86981,3378.8829581,137.0131481,0,0
2278,8*,1,51,11,61,31,41,22,Abstract_Concrete_6tasks_simseq_2seq_listtask_switchAB_fMRI,169609,45123,21435,1,13,13,A3,helmet,1,8*,3241.86981,3391.8821628,150.0123528,0,0
2147,8*,1,51,11,62,32,42,21,Abstract_Concrete_6tasks_simseq_2seq_listtask_switchAB_fMRI,169609,45123,21435,1,14,14,B2,helmet,1,8*,3241.86981,3401.8831577,160.0133477,0,0
2239,4$,1,52,12,62,31,41,22,Abstract_Concrete_6tasks_simseq_2seq_listtask_switchAB_fMRI,169609,45123,21435,1,15,15,A5,glasses,3,4$,3241.86981,3411.8836249,170.0138149,0,0
2378,2@,1,52,12,61,31,41,21,Abstract_Concrete_6tasks_simseq_2seq_listtask_switchAB_fMRI,169609,45123,21435,1,16,16,B1,vest,2,2@,3241.86981,3421.8819711,180.0121611,0,0
3048,2@,1,52,11,61,32,41,21,Abstract_Concrete_6tasks_simseq_2seq_listtask_switchAB_fMRI,169609,45123,21435,1,17,17,A4,vest,2,2@,3241.86981,3431.8818349,190.0120249,0,0
2044,7&,1,52,12,61,32,42,22,Abstract_Concrete_6tasks_simseq_2seq_listtask_switchAB_fMRI,169609,45123,21435,1,18,18,B3,weapon,5,7&,3241.86981,3442.8817974,201.0119874,0,0
1654,7&,1,51,11,61,31,42,21,Abstract_Concrete_6tasks_simseq_2seq_listtask_switchAB_fMRI,169609,45123,21435,1,19,19,A1,weapon,5,7&,3241.86981,3452.8810833,211.0112733,0,0
4716,7&,1,52,12,62,31,42,21,Abstract_Concrete_6tasks_simseq_2seq_listtask_switchAB_fMRI,169609,45123,21435,1,20,20,B3,weapon,5,7&,3241.86981,3461.8828581,220.0130481,0,0
2579,7&,1,52,11,62,32,42,21,Abstract_Concrete_6tasks_simseq_2seq_listtask_switchAB_fMRI,169609,45123,21435,1,21,21,A1,weapon,5,7&,3241.86981,3473.8811868,232.0113768,0,0
2454,9(,1,51,12,61,32,42,21,Abstract_Concrete_6tasks_simseq_2seq_listtask_switchAB_fMRI,169609,45123,21435,1,22,22,B5,tools,6,9(,3241.86981,3483.8826638,242.0128538,0,0
3680,2@,1,51,12,62,31,42,21,Abstract_Concrete_6tasks_simseq_2seq_listtask_switchAB_fMRI,169609,45123,21435,1,23,23,A4,vest,2,2@,3241.86981,3493.8817669,252.0119569,0,0
2181,9(,1,52,12,61,32,41,22,Abstract_Concrete_6tasks_simseq_2seq_listtask_switchAB_fMRI,169609,45123,21435,1,24,24,B5,tools,6,9(,3241.86981,3504.8817603,263.0119503,0,0
2805,4$,1,52,11,62,32,42,22,Abstract_Concrete_6tasks_simseq_2seq_listtask_switchAB_fMRI,169609,45123,21435,1,25,25,A5,glasses,3,4$,3241.86981,3514.8796179,273.0098079,0,0
5720,7&,1,51,12,61,32,41,21,Abstract_Concrete_6tasks_simseq_2seq_listtask_switchAB_fMRI,169609,45123,21435,1,26,26,B3,weapon,5,7&,3241.86981,3524.8824391,283.0126291,0,0
2783,2@,1,52,11,61,32,42,21,Abstract_Concrete_6tasks_simseq_2seq_listtask_switchAB_fMRI,169609,45123,21435,1,27,27,A4,vest,2,2@,3241.86981,3537.8804672,296.0106572,0,0
2552,9(,1,51,11,61,32,41,22,Abstract_Concrete_6tasks_simseq_2seq_listtask_switchAB_fMRI,169609,45123,21435,1,28,28,B5,tools,6,9(,3241.86981,3547.8812101,306.0114001,0,0
5244,2@,1,52,11,61,31,42,22,Abstract_Concrete_6tasks_simseq_2seq_listtask_switchAB_fMRI,169609,45123,21435,1,29,29,A4,vest,2,2@,3241.86981,3557.880597,316.010787,0,0
2533,2@,1,51,11,62,31,41,22,Abstract_Concrete_6tasks_simseq_2seq_listtask_switchAB_fMRI,169609,45123,21435,1,30,30,B1,vest,2,2@,3241.86981,3570.8828158,329.0130058,0,0
4301,8*,1,51,12,62,31,42,22,Abstract_Concrete_6tasks_simseq_2seq_listtask_switchAB_fMRI,169609,45123,21435,1,31,31,A3,helmet,1,8*,3241.86981,3580.8815158,339.0117058,0,0
2075,2@,1,51,12,62,32,42,21,Abstract_Concrete_6tasks_simseq_2seq_listtask_switchAB_fMRI,169609,45123,21435,1,32,32,B1,vest,2,2@,3241.86981,3592.8799722,351.0101622,0,0
1868,7&,1,52,11,62,31,42,21,Abstract_Concrete_6tasks_simseq_2seq_listtask_switchAB_fMRI,169609,45123,21435,1,33,33,A1,weapon,5,7&,3241.86981,3602.8811358,361.0113258,0,0
5288,4$,1,51,11,62,32,42,21,Abstract_Concrete_6tasks_simseq_2seq_listtask_switchAB_fMRI,169609,45123,21435,1,34,34,B4,glasses,3,4$,3241.86981,3611.8807442,370.0109342,0,0
1962,9(,1,51,12,61,31,42,21,Abstract_Concrete_6tasks_simseq_2seq_listtask_switchAB_fMRI,169609,45123,21435,1,35,35,A2,tools,6,9(,3241.86981,3624.8824474,383.0126374,0,0
2484,8*,1,51,12,61,32,42,21,Abstract_Concrete_6tasks_simseq_2seq_listtask_switchAB_fMRI,169609,45123,21435,1,36,36,B2,helmet,1,8*,3241.86981,3633.8814614,392.0116514,0,0
3039,8*,1,51,12,62,31,41,22,Abstract_Concrete_6tasks_simseq_2seq_listtask_switchAB_fMRI,169609,45123,21435,1,37,37,A3,helmet,1,8*,3241.86981,3643.8811022,402.0112922,0,0
2818,4$,1,52,11,62,31,42,21,Abstract_Concrete_6tasks_simseq_2seq_listtask_switchAB_fMRI,169609,45123,21435,1,38,38,B4,glasses,3,4$,3241.86981,3654.882319,413.012509,0,0
1554,9(,1,51,11,61,31,41,22,Abstract_Concrete_6tasks_simseq_2seq_listtask_switchAB_fMRI,169609,45123,21435,1,39,39,A2,tools,6,9(,3241.86981,3664.8816001,423.0117901,0,0
2640,4$,0,52,11,62,31,42,21,Abstract_Concrete_6tasks_simseq_2seq_listtask_switchAB_fMRI,169609,45123,21435,1,40,40,B1,vest,2,2@,3241.86981,3673.8810426,432.0112326,3676.5360802,434.6662702
3491,8*,1,51,12,61,32,41,21,Abstract_Concrete_6tasks_simseq_2seq_listtask_switchAB_fMRI,169609,45123,21435,2,1,41,B2,helmet,1,8*,3728.2653808,3736.2748268,8.00944600000003,0,0
4530,4$,1,51,11,62,32,42,21,Abstract_Concrete_6tasks_simseq_2seq_listtask_switchAB_fMRI,169609,45123,21435,2,2,42,A5,glasses,3,4$,3728.2653808,3747.2746293,19.0092485,0,0
3055,4$,0,51,11,62,31,42,21,Abstract_Concrete_6tasks_simseq_2seq_listtask_switchAB_fMRI,169609,45123,21435,2,3,43,B3,weapon,5,7&,3728.2653808,3759.2779958,31.0126150000001,3762.3512277,34.0858469
3988,2@,1,51,12,61,31,41,22,Abstract_Concrete_6tasks_simseq_2seq_listtask_switchAB_fMRI,169609,45123,21435,2,4,44,A4,vest,2,2@,3728.2653808,3770.2756996,42.0103187999998,0,0
1717,2@,1,51,11,62,31,41,21,Abstract_Concrete_6tasks_simseq_2seq_listtask_switchAB_fMRI,169609,45123,21435,2,5,45,B1,vest,2,2@,3728.2653808,3781.2774454,53.0120646,0,0
2066,7&,1,52,12,61,31,41,22,Abstract_Concrete_6tasks_simseq_2seq_listtask_switchAB_fMRI,169609,45123,21435,2,6,46,A1,weapon,5,7&,3728.2653808,3790.2781,62.0127192,0,0
2007,2@,1,52,12,62,32,42,21,Abstract_Concrete_6tasks_simseq_2seq_listtask_switchAB_fMRI,169609,45123,21435,2,7,47,B1,vest,2,2@,3728.2653808,3800.2760168,72.010636,0,0
1746,7&,0,52,11,62,31,41,22,Abstract_Concrete_6tasks_simseq_2seq_listtask_switchAB_fMRI,169609,45123,21435,2,8,48,A3,helmet,1,8*,3728.2653808,3810.2783877,82.0130069000002,3812.0395801,83.7741993
4990,7&,1,52,12,61,31,41,21,Abstract_Concrete_6tasks_simseq_2seq_listtask_switchAB_fMRI,169609,45123,21435,2,9,49,B3,weapon,5,7&,3728.2653808,3819.2753169,91.0099360999998,0,0
1842,4$,1,51,11,61,31,42,22,Abstract_Concrete_6tasks_simseq_2seq_listtask_switchAB_fMRI,169609,45123,21435,2,10,50,A5,glasses,3,4$,3728.2653808,3832.2772644,104.0118836,0,0
2325,9(,1,51,11,61,32,41,21,Abstract_Concrete_6tasks_simseq_2seq_listtask_switchAB_fMRI,169609,45123,21435,2,11,51,B5,tools,6,9(,3728.2653808,3841.2766448,113.011264,0,0
2101,9(,1,52,11,62,32,42,22,Abstract_Concrete_6tasks_simseq_2seq_listtask_switchAB_fMRI,169609,45123,21435,2,12,52,A2,tools,6,9(,3728.2653808,3851.2769749,123.0115941,0,0
1868,2@,1,52,12,61,32,41,22,Abstract_Concrete_6tasks_simseq_2seq_listtask_switchAB_fMRI,169609,45123,21435,2,13,53,B1,vest,2,2@,3728.2653808,3861.279088,133.0137072,0,0
2509,9(,1,51,11,61,31,42,22,Abstract_Concrete_6tasks_simseq_2seq_listtask_switchAB_fMRI,169609,45123,21435,2,14,54,A2,tools,6,9(,3728.2653808,3870.276801,142.0114202,0,0
3818,4$,1,51,11,61,32,41,22,Abstract_Concrete_6tasks_simseq_2seq_listtask_switchAB_fMRI,169609,45123,21435,2,15,55,B4,glasses,3,4$,3728.2653808,3880.2774051,152.0120243,0,0
1808,7&,1,51,11,62,31,42,21,Abstract_Concrete_6tasks_simseq_2seq_listtask_switchAB_fMRI,169609,45123,21435,2,16,56,A1,weapon,5,7&,3728.2653808,3891.2780645,163.0126837,0,0
2209,8*,1,51,12,62,32,42,22,Abstract_Concrete_6tasks_simseq_2seq_listtask_switchAB_fMRI,169609,45123,21435,2,17,57,B2,helmet,1,8*,3728.2653808,3900.2780103,172.0126295,0,0
2951,8*,1,52,12,61,32,42,21,Abstract_Concrete_6tasks_simseq_2seq_listtask_switchAB_fMRI,169609,45123,21435,2,18,58,A3,helmet,1,8*,3728.2653808,3910.2787849,182.0134041,0,0
2854,8*,1,52,12,62,32,41,21,Abstract_Concrete_6tasks_simseq_2seq_listtask_switchAB_fMRI,169609,45123,21435,2,19,59,B2,helmet,1,8*,3728.2653808,3920.276716,192.0113352,0,0
3133,4$,1,52,11,61,31,42,21,Abstract_Concrete_6tasks_simseq_2seq_listtask_switchAB_fMRI,169609,45123,21435,2,20,60,A5,glasses,3,4$,3728.2653808,3930.2776499,202.0122691,0,0
2302,4$,1,51,11,61,31,41,21,Abstract_Concrete_6tasks_simseq_2seq_listtask_switchAB_fMRI,169609,45123,21435,2,21,61,B4,glasses,3,4$,3728.2653808,3941.2764752,213.0110944,0,0
3842,4$,1,52,11,61,31,42,21,Abstract_Concrete_6tasks_simseq_2seq_listtask_switchAB_fMRI,169609,45123,21435,2,22,62,A5,glasses,3,4$,3728.2653808,3951.2762859,223.0109051,0,0
3340,4$,1,51,11,61,32,42,22,Abstract_Concrete_6tasks_simseq_2seq_listtask_switchAB_fMRI,169609,45123,21435,2,23,63,B4,glasses,3,4$,3728.2653808,3962.2770327,234.0116519,0,0
1136,7&,1,51,11,62,31,41,22,Abstract_Concrete_6tasks_simseq_2seq_listtask_switchAB_fMRI,169609,45123,21435,2,24,64,A1,weapon,5,7&,3728.2653808,3973.2775964,245.0122156,0,0
2149,7&,1,51,12,62,31,42,21,Abstract_Concrete_6tasks_simseq_2seq_listtask_switchAB_fMRI,169609,45123,21435,2,25,65,B3,weapon,5,7&,3728.2653808,3982.2783503,254.0129695,0,0
2048,8*,1,51,12,62,31,42,21,Abstract_Concrete_6tasks_simseq_2seq_listtask_switchAB_fMRI,169609,45123,21435,2,26,66,A3,helmet,1,8*,3728.2653808,3992.2772304,264.0118496,0,0
2120,2@,1,51,11,61,32,42,21,Abstract_Concrete_6tasks_simseq_2seq_listtask_switchAB_fMRI,169609,45123,21435,2,27,67,B1,vest,2,2@,3728.2653808,4002.2777119,274.0123311,0,0
1177,8*,1,51,12,61,31,42,21,Abstract_Concrete_6tasks_simseq_2seq_listtask_switchAB_fMRI,169609,45123,21435,2,28,68,A3,helmet,1,8*,3728.2653808,4012.278462,284.0130812,0,0
2340,4$,1,51,12,62,31,42,22,Abstract_Concrete_6tasks_simseq_2seq_listtask_switchAB_fMRI,169609,45123,21435,2,29,69,B4,glasses,3,4$,3728.2653808,4021.277581,293.0122002,0,0
995,7&,1,51,11,61,32,41,21,Abstract_Concrete_6tasks_simseq_2seq_listtask_switchAB_fMRI,169609,45123,21435,2,30,70,A1,weapon,5,7&,3728.2653808,4031.2762029,303.0108221,0,0
2712,9(,1,51,11,62,31,42,21,Abstract_Concrete_6tasks_simseq_2seq_listtask_switchAB_fMRI,169609,45123,21435,2,31,71,B5,tools,6,9(,3728.2653808,4040.2788198,312.013439,0,0
4902,4$,0,52,12,61,32,42,21,Abstract_Concrete_6tasks_simseq_2seq_listtask_switchAB_fMRI,169609,45123,21435,2,32,72,A4,vest,2,2@,3728.2653808,4050.2758171,322.0104363,4055.1915299,326.9261491
2086,9(,1,52,11,62,32,42,21,Abstract_Concrete_6tasks_simseq_2seq_listtask_switchAB_fMRI,169609,45123,21435,2,33,73,B5,tools,6,9(,3728.2653808,4062.2750097,334.0096289,0,0
2126,2@,1,51,12,61,32,42,22,Abstract_Concrete_6tasks_simseq_2seq_listtask_switchAB_fMRI,169609,45123,21435,2,34,74,A4,vest,2,2@,3728.2653808,4072.2763617,344.0109809,0,0
3616,8*,0,52,12,61,31,42,22,Abstract_Concrete_6tasks_simseq_2seq_listtask_switchAB_fMRI,169609,45123,21435,2,35,75,B3,weapon,5,7&,3728.2653808,4082.2771236,354.0117428,4085.9055714,357.6401906
2368,9(,1,52,12,62,32,42,22,Abstract_Concrete_6tasks_simseq_2seq_listtask_switchAB_fMRI,169609,45123,21435,2,36,76,A2,tools,6,9(,3728.2653808,4093.2757915,365.0104107,0,0
3035,8*,1,52,12,62,31,42,21,Abstract_Concrete_6tasks_simseq_2seq_listtask_switchAB_fMRI,169609,45123,21435,2,37,77,B2,helmet,1,8*,3728.2653808,4103.2762153,375.0108345,0,0
2065,2@,1,51,12,62,32,42,22,Abstract_Concrete_6tasks_simseq_2seq_listtask_switchAB_fMRI,169609,45123,21435,2,38,78,A4,vest,2,2@,3728.2653808,4114.2777238,386.012343,0,0
3033,9(,1,52,11,62,31,42,21,Abstract_Concrete_6tasks_simseq_2seq_listtask_switchAB_fMRI,169609,45123,21435,2,39,79,B5,tools,6,9(,3728.2653808,4124.2772042,396.0118234,0,0
1649,9(,1,52,12,62,32,41,21,Abstract_Concrete_6tasks_simseq_2seq_listtask_switchAB_fMRI,169609,45123,21435,2,40,80,A2,tools,6,9(,3728.2653808,4135.2772092,407.0118284,0,0
2597,4$,1,52,11,61,32,42,21,Abstract_Concrete_6tasks_simseq_2seq_listtask_switchAB_fMRI,169609,45123,21435,3,1,81,B4,glasses,3,4$,4190.4279714,4198.4404925,8.0125210999995,0,0
1115,7&,1,52,12,62,31,42,21,Abstract_Concrete_6tasks_simseq_2seq_listtask_switchAB_fMRI,169609,45123,21435,3,2,82,A1,weapon,5,7&,4190.4279714,4208.4395261,18.0115546999996,0,0
3476,9(,1,51,11,62,31,42,21,Abstract_Concrete_6tasks_simseq_2seq_listtask_switchAB_fMRI,169609,45123,21435,3,3,83,B5,tools,6,9(,4190.4279714,4217.4403505,27.0123790999996,0,0
980,7&,1,51,12,61,32,42,22,Abstract_Concrete_6tasks_simseq_2seq_listtask_switchAB_fMRI,169609,45123,21435,3,4,84,A1,weapon,5,7&,4190.4279714,4228.4390057,38.0110342999997,0,0
2108,2@,1,52,12,61,32,42,21,Abstract_Concrete_6tasks_simseq_2seq_listtask_switchAB_fMRI,169609,45123,21435,3,5,85,B1,vest,2,2@,4190.4279714,4236.4400615,46.0120901,0,0
2724,4$,1,52,12,62,32,41,22,Abstract_Concrete_6tasks_simseq_2seq_listtask_switchAB_fMRI,169609,45123,21435,3,6,86,A5,glasses,3,4$,4190.4279714,4246.4406632,56.0126917999996,0,0
2846,8*,1,51,11,62,32,41,22,Abstract_Concrete_6tasks_simseq_2seq_listtask_switchAB_fMRI,169609,45123,21435,3,7,87,B2,helmet,1,8*,4190.4279714,4256.439056,66.0110845999998,0,0
4219,9(,0,51,12,61,31,42,22,Abstract_Concrete_6tasks_simseq_2seq_listtask_switchAB_fMRI,169609,45123,21435,3,8,88,A5,glasses,3,4$,4190.4279714,4266.4411217,76.0131502999993,4270.6776734,80.2497019999992
2011,9(,1,51,11,61,32,41,21,Abstract_Concrete_6tasks_simseq_2seq_listtask_switchAB_fMRI,169609,45123,21435,3,9,89,B5,tools,6,9(,4190.4279714,4278.4392593,88.0112878999998,0,0
2998,9(,1,52,12,62,31,42,22,Abstract_Concrete_6tasks_simseq_2seq_listtask_switchAB_fMRI,169609,45123,21435,3,10,90,A2,tools,6,9(,4190.4279714,4288.4423325,98.0143610999994,0,0
3094,8*,0,52,12,61,31,42,21,Abstract_Concrete_6tasks_simseq_2seq_listtask_switchAB_fMRI,169609,45123,21435,3,11,91,B3,weapon,5,7&,4190.4279714,4299.4401602,109.012188799999,4302.5458482,112.1178768
3615,8*,1,51,11,61,31,42,21,Abstract_Concrete_6tasks_simseq_2seq_listtask_switchAB_fMRI,169609,45123,21435,3,12,92,A3,helmet,1,8*,4190.4279714,4310.439367,120.0113956,0,0
2129,7&,1,51,11,61,31,42,22,Abstract_Concrete_6tasks_simseq_2seq_listtask_switchAB_fMRI,169609,45123,21435,3,13,93,B3,weapon,5,7&,4190.4279714,4321.4401069,131.012135499999,0,0
1124,7&,1,51,11,62,31,41,21,Abstract_Concrete_6tasks_simseq_2seq_listtask_switchAB_fMRI,169609,45123,21435,3,14,94,A1,weapon,5,7&,4190.4279714,4331.441481,141.013509599999,0,0
1311,8*,1,51,12,61,32,42,22,Abstract_Concrete_6tasks_simseq_2seq_listtask_switchAB_fMRI,169609,45123,21435,3,15,95,B2,helmet,1,8*,4190.4279714,4340.4394006,150.0114292,0,0
2402,8*,1,51,11,61,31,41,21,Abstract_Concrete_6tasks_simseq_2seq_listtask_switchAB_fMRI,169609,45123,21435,3,16,96,A3,helmet,1,8*,4190.4279714,4349.4415011,159.0135297,0,0
2150,4$,1,51,12,62,31,42,21,Abstract_Concrete_6tasks_simseq_2seq_listtask_switchAB_fMRI,169609,45123,21435,3,17,97,B4,glasses,3,4$,4190.4279714,4359.4403159,169.0123445,0,0
1609,9(,1,52,12,62,31,42,21,Abstract_Concrete_6tasks_simseq_2seq_listtask_switchAB_fMRI,169609,45123,21435,3,18,98,A2,tools,6,9(,4190.4279714,4369.4422803,179.014308899999,0,0
2240,8*,1,52,11,61,32,41,22,Abstract_Concrete_6tasks_simseq_2seq_listtask_switchAB_fMRI,169609,45123,21435,3,19,99,B2,helmet,1,8*,4190.4279714,4378.4411897,188.0132183,0,0
3085,4$,1,51,11,61,31,41,22,Abstract_Concrete_6tasks_simseq_2seq_listtask_switchAB_fMRI,169609,45123,21435,3,20,100,A5,glasses,3,4$,4190.4279714,4388.4418076,198.0138362,0,0
2735,9(,1,51,12,62,32,42,22,Abstract_Concrete_6tasks_simseq_2seq_listtask_switchAB_fMRI,169609,45123,21435,3,21,101,B5,tools,6,9(,4190.4279714,4399.4412741,209.013302699999,0,0
2869,9(,1,51,12,62,32,41,22,Abstract_Concrete_6tasks_simseq_2seq_listtask_switchAB_fMRI,169609,45123,21435,3,22,102,A2,tools,6,9(,4190.4279714,4409.4392482,219.0112768,0,0
3661,9(,1,52,12,62,31,42,22,Abstract_Concrete_6tasks_simseq_2seq_listtask_switchAB_fMRI,169609,45123,21435,3,23,103,B5,tools,6,9(,4190.4279714,4419.4392196,229.011248199999,0,0
1185,7&,1,52,11,61,32,41,22,Abstract_Concrete_6tasks_simseq_2seq_listtask_switchAB_fMRI,169609,45123,21435,3,24,104,A1,weapon,5,7&,4190.4279714,4430.4393751,240.011403699999,0,0
3187,7&,1,52,12,61,31,41,22,Abstract_Concrete_6tasks_simseq_2seq_listtask_switchAB_fMRI,169609,45123,21435,3,25,105,B3,weapon,5,7&,4190.4279714,4439.4397294,249.011758,0,0
4003,2@,1,52,11,61,31,41,21,Abstract_Concrete_6tasks_simseq_2seq_listtask_switchAB_fMRI,169609,45123,21435,3,26,106,A4,vest,2,2@,4190.4279714,4450.4421062,260.0141348,0,0
2051,2@,1,51,12,62,32,41,22,Abstract_Concrete_6tasks_simseq_2seq_listtask_switchAB_fMRI,169609,45123,21435,3,27,107,B1,vest,2,2@,4190.4279714,4462.4400015,272.0120301,0,0
3388,8*,1,52,11,62,31,42,21,Abstract_Concrete_6tasks_simseq_2seq_listtask_switchAB_fMRI,169609,45123,21435,3,28,108,A3,helmet,1,8*,4190.4279714,4472.4385241,282.0105527,0,0
1808,2@,1,52,12,62,32,42,21,Abstract_Concrete_6tasks_simseq_2seq_listtask_switchAB_fMRI,169609,45123,21435,3,29,109,B1,vest,2,2@,4190.4279714,4483.438764,293.0107926,0,0
2964,2@,1,51,12,61,32,41,21,Abstract_Concrete_6tasks_simseq_2seq_listtask_switchAB_fMRI,169609,45123,21435,3,30,110,A4,vest,2,2@,4190.4279714,4492.4377397,302.009768299999,0,0
1570,2@,1,52,12,61,31,41,21,Abstract_Concrete_6tasks_simseq_2seq_listtask_switchAB_fMRI,169609,45123,21435,3,31,111,B1,vest,2,2@,4190.4279714,4502.4386977,312.0107263,0,0
1883,8*,1,51,11,61,32,42,22,Abstract_Concrete_6tasks_simseq_2seq_listtask_switchAB_fMRI,169609,45123,21435,3,32,112,A3,helmet,1,8*,4190.4279714,4511.4392862,321.0113148,0,0
2498,4$,1,52,12,62,31,41,22,Abstract_Concrete_6tasks_simseq_2seq_listtask_switchAB_fMRI,169609,45123,21435,3,33,113,B4,glasses,3,4$,4190.4279714,4520.4390304,330.011058999999,0,0
2204,2@,1,51,12,61,31,42,21,Abstract_Concrete_6tasks_simseq_2seq_listtask_switchAB_fMRI,169609,45123,21435,3,34,114,A4,vest,2,2@,4190.4279714,4530.439204,340.0112326,0,0
2318,7&,1,51,11,61,31,42,22,Abstract_Concrete_6tasks_simseq_2seq_listtask_switchAB_fMRI,169609,45123,21435,3,35,115,B3,weapon,5,7&,4190.4279714,4540.4398901,350.0119187,0,0
2411,2@,1,51,11,62,31,41,21,Abstract_Concrete_6tasks_simseq_2seq_listtask_switchAB_fMRI,169609,45123,21435,3,36,116,A4,vest,2,2@,4190.4279714,4550.4423599,360.0143885,0,0
3304,4$,1,52,12,61,32,41,22,Abstract_Concrete_6tasks_simseq_2seq_listtask_switchAB_fMRI,169609,45123,21435,3,37,117,B4,glasses,3,4$,4190.4279714,4560.4402484,370.012277,0,0
5505,4$,1,51,11,62,31,41,21,Abstract_Concrete_6tasks_simseq_2seq_listtask_switchAB_fMRI,169609,45123,21435,3,38,118,A5,glasses,3,4$,4190.4279714,4571.4401507,381.0121793,0,0
2108,8*,1,52,11,61,32,41,21,Abstract_Concrete_6tasks_simseq_2seq_listtask_switchAB_fMRI,169609,45123,21435,3,39,119,B2,helmet,1,8*,4190.4279714,4584.4401513,394.0121799,0,0
3501,9(,1,52,12,62,31,41,21,Abstract_Concrete_6tasks_simseq_2seq_listtask_switchAB_fMRI,169609,45123,21435,3,40,120,A2,tools,6,9(,4190.4279714,4594.4393652,404.011393799999,0,0
5032,4$,1,51,11,61,32,41,22,Abstract_Concrete_6tasks_simseq_2seq_listtask_switchAB_fMRI,169609,45123,21435,4,1,121,B4,glasses,3,4$,4722.5210901,4730.5319313,8.01084119999996,0,0
3094,8*,1,51,12,61,31,42,21,Abstract_Concrete_6tasks_simseq_2seq_listtask_switchAB_fMRI,169609,45123,21435,4,2,122,A3,helmet,1,8*,4722.5210901,4743.5314721,21.0103820000004,0,0
2378,9(,1,52,12,62,31,41,22,Abstract_Concrete_6tasks_simseq_2seq_listtask_switchAB_fMRI,169609,45123,21435,4,3,123,B5,tools,6,9(,4722.5210901,4754.5325992,32.0115090999998,0,0
1948,4$,1,52,11,62,32,41,22,Abstract_Concrete_6tasks_simseq_2seq_listtask_switchAB_fMRI,169609,45123,21435,4,4,124,A5,glasses,3,4$,4722.5210901,4764.5344276,42.0133374999996,0,0
1695,2@,1,51,12,61,31,41,22,Abstract_Concrete_6tasks_simseq_2seq_listtask_switchAB_fMRI,169609,45123,21435,4,5,125,B1,vest,2,2@,4722.5210901,4773.5328343,51.0117442000001,0,0
2723,9(,1,51,11,61,32,41,22,Abstract_Concrete_6tasks_simseq_2seq_listtask_switchAB_fMRI,169609,45123,21435,4,6,126,A2,tools,6,9(,4722.5210901,4782.5345352,60.0134451000004,0,0
2366,9(,1,52,12,61,31,41,22,Abstract_Concrete_6tasks_simseq_2seq_listtask_switchAB_fMRI,169609,45123,21435,4,7,127,B5,tools,6,9(,4722.5210901,4792.5322008,70.0111107000002,0,0
2800,9(,1,52,12,62,31,42,21,Abstract_Concrete_6tasks_simseq_2seq_listtask_switchAB_fMRI,169609,45123,21435,4,8,128,A2,tools,6,9(,4722.5210901,4802.5347579,80.0136677999999,0,0
3162,4$,1,51,11,61,31,41,22,Abstract_Concrete_6tasks_simseq_2seq_listtask_switchAB_fMRI,169609,45123,21435,4,9,129,B4,glasses,3,4$,4722.5210901,4812.5337999,90.0127098000003,0,0
3181,2@,1,52,12,62,32,42,21,Abstract_Concrete_6tasks_simseq_2seq_listtask_switchAB_fMRI,169609,45123,21435,4,10,130,A4,vest,2,2@,4722.5210901,4823.5328203,101.0117302,0,0
2012,7&,1,51,12,61,32,42,22,Abstract_Concrete_6tasks_simseq_2seq_listtask_switchAB_fMRI,169609,45123,21435,4,11,131,B3,weapon,5,7&,4722.5210901,4834.5352271,112.014137,0,0
1093,7&,1,52,12,61,32,42,22,Abstract_Concrete_6tasks_simseq_2seq_listtask_switchAB_fMRI,169609,45123,21435,4,12,132,A1,weapon,5,7&,4722.5210901,4844.5329509,122.0118608,0,0
1395,2@,1,52,11,62,31,42,21,Abstract_Concrete_6tasks_simseq_2seq_listtask_switchAB_fMRI,169609,45123,21435,4,13,133,B1,vest,2,2@,4722.5210901,4853.5327152,131.0116251,0,0
2959,2@,1,52,11,62,32,41,22,Abstract_Concrete_6tasks_simseq_2seq_listtask_switchAB_fMRI,169609,45123,21435,4,14,134,A4,vest,2,2@,4722.5210901,4862.5343557,140.0132656,0,0
2296,8*,1,51,12,61,31,41,21,Abstract_Concrete_6tasks_simseq_2seq_listtask_switchAB_fMRI,169609,45123,21435,4,15,135,B2,helmet,1,8*,4722.5210901,4872.532022,150.0109319,0,0
1720,8*,1,52,12,61,32,42,22,Abstract_Concrete_6tasks_simseq_2seq_listtask_switchAB_fMRI,169609,45123,21435,4,16,136,A3,helmet,1,8*,4722.5210901,4882.5354913,160.0144012,0,0
2566,8*,1,52,12,61,32,41,21,Abstract_Concrete_6tasks_simseq_2seq_listtask_switchAB_fMRI,169609,45123,21435,4,17,137,B2,helmet,1,8*,4722.5210901,4891.5323014,169.0112113,0,0
2196,8*,1,52,11,62,31,42,22,Abstract_Concrete_6tasks_simseq_2seq_listtask_switchAB_fMRI,169609,45123,21435,4,18,138,A3,helmet,1,8*,4722.5210901,4901.5340184,179.0129283,0,0
1526,2@,1,52,12,62,32,41,21,Abstract_Concrete_6tasks_simseq_2seq_listtask_switchAB_fMRI,169609,45123,21435,4,19,139,B1,vest,2,2@,4722.5210901,4911.5336236,189.0125335,0,0
2058,8*,1,51,11,62,31,41,22,Abstract_Concrete_6tasks_simseq_2seq_listtask_switchAB_fMRI,169609,45123,21435,4,20,140,A3,helmet,1,8*,4722.5210901,4920.5330038,198.0119137,0,0
1427,8*,1,52,12,61,32,42,21,Abstract_Concrete_6tasks_simseq_2seq_listtask_switchAB_fMRI,169609,45123,21435,4,21,141,B2,helmet,1,8*,4722.5210901,4930.532686,208.0115959,0,0
1745,9(,1,51,11,62,31,41,21,Abstract_Concrete_6tasks_simseq_2seq_listtask_switchAB_fMRI,169609,45123,21435,4,22,142,A2,tools,6,9(,4722.5210901,4939.5327641,217.011674,0,0
3082,4$,1,51,11,62,31,41,22,Abstract_Concrete_6tasks_simseq_2seq_listtask_switchAB_fMRI,169609,45123,21435,4,23,143,B4,glasses,3,4$,4722.5210901,4948.5339739,226.0128838,0,0
3037,4$,1,52,11,62,32,41,22,Abstract_Concrete_6tasks_simseq_2seq_listtask_switchAB_fMRI,169609,45123,21435,4,24,144,A5,glasses,3,4$,4722.5210901,4959.5322295,237.0111394,0,0
2107,7&,1,52,11,61,32,42,22,Abstract_Concrete_6tasks_simseq_2seq_listtask_switchAB_fMRI,169609,45123,21435,4,25,145,B3,weapon,5,7&,4722.5210901,4970.5321963,248.0111062,0,0
3809,2@,1,51,11,62,31,42,21,Abstract_Concrete_6tasks_simseq_2seq_listtask_switchAB_fMRI,169609,45123,21435,4,26,146,A4,vest,2,2@,4722.5210901,4980.5345609,258.0134708,0,0
1557,7&,1,52,11,62,32,41,21,Abstract_Concrete_6tasks_simseq_2seq_listtask_switchAB_fMRI,169609,45123,21435,4,27,147,B3,weapon,5,7&,4722.5210901,4991.5331098,269.0120197,0,0
1929,4$,0,52,12,62,31,41,22,Abstract_Concrete_6tasks_simseq_2seq_listtask_switchAB_fMRI,169609,45123,21435,4,28,148,A4,vest,2,2@,4722.5210901,5000.5314136,278.0103235,5002.4760917,279.9550016
2155,9(,1,52,11,61,31,41,22,Abstract_Concrete_6tasks_simseq_2seq_listtask_switchAB_fMRI,169609,45123,21435,4,29,149,B5,tools,6,9(,4722.5210901,5009.531856,287.0107659,0,0
2485,9(,1,51,12,62,31,41,22,Abstract_Concrete_6tasks_simseq_2seq_listtask_switchAB_fMRI,169609,45123,21435,4,30,150,A2,tools,6,9(,4722.5210901,5019.5329396,297.0118495,0,0
1724,7&,1,52,12,61,32,41,21,Abstract_Concrete_6tasks_simseq_2seq_listtask_switchAB_fMRI,169609,45123,21435,4,31,151,B3,weapon,5,7&,4722.5210901,5029.5345834,307.0134933,0,0
2636,4$,1,52,12,62,31,42,22,Abstract_Concrete_6tasks_simseq_2seq_listtask_switchAB_fMRI,169609,45123,21435,4,32,152,A5,glasses,3,4$,4722.5210901,5038.5316809,316.0105908,0,0
2057,2@,1,52,11,61,31,41,21,Abstract_Concrete_6tasks_simseq_2seq_listtask_switchAB_fMRI,169609,45123,21435,4,33,153,B1,vest,2,2@,4722.5210901,5048.53223,326.0111399,0,0
1846,7&,1,52,12,61,32,41,22,Abstract_Concrete_6tasks_simseq_2seq_listtask_switchAB_fMRI,169609,45123,21435,4,34,154,A1,weapon,5,7&,4722.5210901,5058.5344447,336.0133546,0,0
3161,4$,1,52,11,61,32,41,21,Abstract_Concrete_6tasks_simseq_2seq_listtask_switchAB_fMRI,169609,45123,21435,4,35,155,B4,glasses,3,4$,4722.5210901,5067.5312374,345.0101473,0,0
1279,7&,1,52,11,61,32,42,21,Abstract_Concrete_6tasks_simseq_2seq_listtask_switchAB_fMRI,169609,45123,21435,4,36,156,A1,weapon,5,7&,4722.5210901,5078.5321651,356.011075,0,0
2786,8*,1,51,12,61,31,41,21,Abstract_Concrete_6tasks_simseq_2seq_listtask_switchAB_fMRI,169609,45123,21435,4,37,157,B2,helmet,1,8*,4722.5210901,5087.5328581,365.011768,0,0
1315,7&,1,51,11,61,32,42,22,Abstract_Concrete_6tasks_simseq_2seq_listtask_switchAB_fMRI,169609,45123,21435,4,38,158,A1,weapon,5,7&,4722.5210901,5097.5325337,375.0114436,0,0
2038,4$,0,51,12,62,31,41,21,Abstract_Concrete_6tasks_simseq_2seq_listtask_switchAB_fMRI,169609,45123,21435,4,39,159,B5,tools,6,9(,4722.5210901,5106.5335966,384.0125065,5108.5824781,386.061388
2861,4$,1,52,12,62,31,41,21,Abstract_Concrete_6tasks_simseq_2seq_listtask_switchAB_fMRI,169609,45123,21435,4,40,160,A5,glasses,3,4$,4722.5210901,5116.5322064,394.0111163,0,0
2606,8*,1,52,12,62,31,41,21,Abstract_Concrete_6tasks_simseq_2seq_listtask_switchAB_fMRI,169609,45123,21435,5,1,161,B2,helmet,1,8*,5165.5385905,5173.5494164,8.01082589999987,0,0
2817,2@,1,52,12,61,32,42,22,Abstract_Concrete_6tasks_simseq_2seq_listtask_switchAB_fMRI,169609,45123,21435,5,2,162,A4,vest,2,2@,5165.5385905,5183.5487183,18.0101277999993,0,0
2739,4$,1,51,12,61,31,42,21,Abstract_Concrete_6tasks_simseq_2seq_listtask_switchAB_fMRI,169609,45123,21435,5,3,163,B4,glasses,3,4$,5165.5385905,5193.5526825,28.0140919999994,0,0
943,7&,1,51,12,62,32,42,21,Abstract_Concrete_6tasks_simseq_2seq_listtask_switchAB_fMRI,169609,45123,21435,5,4,164,A1,weapon,5,7&,5165.5385905,5203.5523633,38.0137728,0,0
2073,4$,0,51,12,61,31,41,22,Abstract_Concrete_6tasks_simseq_2seq_listtask_switchAB_fMRI,169609,45123,21435,5,5,165,B5,tools,6,9(,5165.5385905,5211.5512368,46.0126462999997,5213.6425201,48.1039295999999
1861,9(,1,52,12,62,32,42,22,Abstract_Concrete_6tasks_simseq_2seq_listtask_switchAB_fMRI,169609,45123,21435,5,6,166,A2,tools,6,9(,5165.5385905,5221.5504507,56.0118601999993,0,0
3027,4$,1,52,11,62,31,41,22,Abstract_Concrete_6tasks_simseq_2seq_listtask_switchAB_fMRI,169609,45123,21435,5,7,167,B4,glasses,3,4$,5165.5385905,5230.5504635,65.0118729999995,0,0
1017,7&,1,51,11,62,32,42,22,Abstract_Concrete_6tasks_simseq_2seq_listtask_switchAB_fMRI,169609,45123,21435,5,8,168,A1,weapon,5,7&,5165.5385905,5241.551121,76.0125305000001,0,0
2207,9(,1,52,12,61,31,41,21,Abstract_Concrete_6tasks_simseq_2seq_listtask_switchAB_fMRI,169609,45123,21435,5,9,169,B5,tools,6,9(,5165.5385905,5250.552674,85.0140834999993,0,0
3793,2@,1,51,12,61,32,42,21,Abstract_Concrete_6tasks_simseq_2seq_listtask_switchAB_fMRI,169609,45123,21435,5,10,170,A4,vest,2,2@,5165.5385905,5260.5500925,95.0115019999994,0,0
1538,2@,1,51,12,61,32,41,22,Abstract_Concrete_6tasks_simseq_2seq_listtask_switchAB_fMRI,169609,45123,21435,5,11,171,B1,vest,2,2@,5165.5385905,5271.5501931,106.0116026,0,0
4356,7&,0,52,12,61,32,42,21,Abstract_Concrete_6tasks_simseq_2seq_listtask_switchAB_fMRI,169609,45123,21435,5,12,172,A4,vest,2,2@,5165.5385905,5280.5523747,115.013784199999,5284.9223406,119.3837501
2053,4$,1,51,12,61,31,41,21,Abstract_Concrete_6tasks_simseq_2seq_listtask_switchAB_fMRI,169609,45123,21435,5,13,173,B4,glasses,3,4$,5165.5385905,5292.5481266,127.009536099999,0,0
1358,9(,1,52,11,61,32,41,21,Abstract_Concrete_6tasks_simseq_2seq_listtask_switchAB_fMRI,169609,45123,21435,5,14,174,A2,tools,6,9(,5165.5385905,5302.550387,137.0117965,0,0
1491,2@,1,51,12,62,32,42,21,Abstract_Concrete_6tasks_simseq_2seq_listtask_switchAB_fMRI,169609,45123,21435,5,15,175,B1,vest,2,2@,5165.5385905,5311.5518681,146.0132776,0,0
2222,9(,1,52,12,61,31,42,21,Abstract_Concrete_6tasks_simseq_2seq_listtask_switchAB_fMRI,169609,45123,21435,5,16,176,A2,tools,6,9(,5165.5385905,5320.5520713,155.013480799999,0,0
3597,8*,1,52,11,61,32,41,21,Abstract_Concrete_6tasks_simseq_2seq_listtask_switchAB_fMRI,169609,45123,21435,5,17,177,B2,helmet,1,8*,5165.5385905,5330.5500617,165.0114712,0,0
891,7&,1,52,12,62,31,41,22,Abstract_Concrete_6tasks_simseq_2seq_listtask_switchAB_fMRI,169609,45123,21435,5,18,178,A1,weapon,5,7&,5165.5385905,5341.5500552,176.0114647,0,0
3299,7&,1,52,12,61,32,42,21,Abstract_Concrete_6tasks_simseq_2seq_listtask_switchAB_fMRI,169609,45123,21435,5,19,179,B3,weapon,5,7&,5165.5385905,5349.5509195,184.012329,0,0
4228,2@,1,51,12,62,31,41,22,Abstract_Concrete_6tasks_simseq_2seq_listtask_switchAB_fMRI,169609,45123,21435,5,20,180,A4,vest,2,2@,5165.5385905,5360.5496653,195.0110748,0,0
2061,2@,1,52,12,62,31,41,22,Abstract_Concrete_6tasks_simseq_2seq_listtask_switchAB_fMRI,169609,45123,21435,5,21,181,B1,vest,2,2@,5165.5385905,5372.5493001,207.0107096,0,0
2391,8*,1,51,12,61,32,41,22,Abstract_Concrete_6tasks_simseq_2seq_listtask_switchAB_fMRI,169609,45123,21435,5,22,182,A3,helmet,1,8*,5165.5385905,5382.5506921,217.012101599999,0,0
1666,4$,1,52,12,62,31,41,22,Abstract_Concrete_6tasks_simseq_2seq_listtask_switchAB_fMRI,169609,45123,21435,5,23,183,B4,glasses,3,4$,5165.5385905,5392.5501056,227.0115151,0,0
3012,8*,1,52,11,61,32,42,21,Abstract_Concrete_6tasks_simseq_2seq_listtask_switchAB_fMRI,169609,45123,21435,5,24,184,A3,helmet,1,8*,5165.5385905,5401.5499432,236.011352699999,0,0
1740,8*,1,52,12,61,31,41,21,Abstract_Concrete_6tasks_simseq_2seq_listtask_switchAB_fMRI,169609,45123,21435,5,25,185,B2,helmet,1,8*,5165.5385905,5412.5519244,247.013333899999,0,0
1810,4$,1,52,12,61,32,41,22,Abstract_Concrete_6tasks_simseq_2seq_listtask_switchAB_fMRI,169609,45123,21435,5,26,186,A5,glasses,3,4$,5165.5385905,5421.5506877,256.0120972,0,0
1880,9(,1,51,12,61,31,41,21,Abstract_Concrete_6tasks_simseq_2seq_listtask_switchAB_fMRI,169609,45123,21435,5,27,187,B5,tools,6,9(,5165.5385905,5430.5486113,265.010020799999,0,0
2121,8*,1,52,11,61,31,42,22,Abstract_Concrete_6tasks_simseq_2seq_listtask_switchAB_fMRI,169609,45123,21435,5,28,188,A3,helmet,1,8*,5165.5385905,5439.5668242,274.0282337,0,0
2652,2@,1,52,11,62,31,42,22,Abstract_Concrete_6tasks_simseq_2seq_listtask_switchAB_fMRI,169609,45123,21435,5,29,189,B1,vest,2,2@,5165.5385905,5449.550128,284.0115375,0,0
2152,4$,1,52,11,62,31,41,21,Abstract_Concrete_6tasks_simseq_2seq_listtask_switchAB_fMRI,169609,45123,21435,5,30,190,A5,glasses,3,4$,5165.5385905,5459.5490449,294.0104544,0,0
1578,8*,1,52,11,62,32,42,22,Abstract_Concrete_6tasks_simseq_2seq_listtask_switchAB_fMRI,169609,45123,21435,5,31,191,B2,helmet,1,8*,5165.5385905,5469.5495101,304.010919599999,0,0
1040,7&,1,52,11,61,32,42,21,Abstract_Concrete_6tasks_simseq_2seq_listtask_switchAB_fMRI,169609,45123,21435,5,32,192,A1,weapon,5,7&,5165.5385905,5478.5514591,313.0128686,0,0
2468,7&,1,52,12,62,31,41,21,Abstract_Concrete_6tasks_simseq_2seq_listtask_switchAB_fMRI,169609,45123,21435,5,33,193,B3,weapon,5,7&,5165.5385905,5487.5504472,322.0118567,0,0
1272,8*,1,52,11,62,32,41,21,Abstract_Concrete_6tasks_simseq_2seq_listtask_switchAB_fMRI,169609,45123,21435,5,34,194,A3,helmet,1,8*,5165.5385905,5497.550222,332.0116315,0,0
2392,9(,1,51,11,61,32,42,22,Abstract_Concrete_6tasks_simseq_2seq_listtask_switchAB_fMRI,169609,45123,21435,5,35,195,B5,tools,6,9(,5165.5385905,5506.5518335,341.013242999999,0,0
2482,9(,1,51,11,61,32,41,21,Abstract_Concrete_6tasks_simseq_2seq_listtask_switchAB_fMRI,169609,45123,21435,5,36,196,A2,tools,6,9(,5165.5385905,5516.5515447,351.0129542,0,0
3972,7&,1,52,12,61,31,41,21,Abstract_Concrete_6tasks_simseq_2seq_listtask_switchAB_fMRI,169609,45123,21435,5,37,197,B3,weapon,5,7&,5165.5385905,5526.5517424,361.0131519,0,0
2113,4$,1,51,12,62,32,41,22,Abstract_Concrete_6tasks_simseq_2seq_listtask_switchAB_fMRI,169609,45123,21435,5,38,198,A5,glasses,3,4$,5165.5385905,5537.5503011,372.0117106,0,0
2088,7&,1,51,12,62,32,41,22,Abstract_Concrete_6tasks_simseq_2seq_listtask_switchAB_fMRI,169609,45123,21435,5,39,199,B3,weapon,5,7&,5165.5385905,5547.5498992,382.0113087,0,0
2783,4$,1,52,11,61,31,41,21,Abstract_Concrete_6tasks_simseq_2seq_listtask_switchAB_fMRI,169609,45123,21435,5,40,200,A5,glasses,3,4$,5165.5385905,5557.5498231,392.0112326,0,0
1570,7&,1,51,11,61,32,42,21,Abstract_Concrete_6tasks_simseq_2seq_listtask_switchAB_fMRI,169609,45123,21435,6,1,201,B3,weapon,5,7&,5619.4849543,5627.4950691,8.01011480000034,0,0
2773,4$,1,52,11,62,32,41,21,Abstract_Concrete_6tasks_simseq_2seq_listtask_switchAB_fMRI,169609,45123,21435,6,2,202,A5,glasses,3,4$,5619.4849543,5636.4950576,17.0101033000001,0,0
1651,2@,1,51,12,61,31,41,22,Abstract_Concrete_6tasks_simseq_2seq_listtask_switchAB_fMRI,169609,45123,21435,6,3,203,B1,vest,2,2@,5619.4849543,5646.49676,27.0118057,0,0
3675,8*,1,52,12,61,31,42,21,Abstract_Concrete_6tasks_simseq_2seq_listtask_switchAB_fMRI,169609,45123,21435,6,4,204,A3,helmet,1,8*,5619.4849543,5655.4985264,36.0135720999997,0,0
1802,8*,1,51,11,62,31,41,21,Abstract_Concrete_6tasks_simseq_2seq_listtask_switchAB_fMRI,169609,45123,21435,6,5,205,B2,helmet,1,8*,5619.4849543,5666.4965491,47.0115948000002,0,0
1876,9(,1,52,12,62,32,42,21,Abstract_Concrete_6tasks_simseq_2seq_listtask_switchAB_fMRI,169609,45123,21435,6,6,206,A2,tools,6,9(,5619.4849543,5675.497034,56.0120797,0,0
1700,2@,1,51,11,61,31,42,21,Abstract_Concrete_6tasks_simseq_2seq_listtask_switchAB_fMRI,169609,45123,21435,6,7,207,B1,vest,2,2@,5619.4849543,5684.4958671,65.0109128000004,0,0
2741,4$,1,51,11,61,31,42,22,Abstract_Concrete_6tasks_simseq_2seq_listtask_switchAB_fMRI,169609,45123,21435,6,8,208,A5,glasses,3,4$,5619.4849543,5693.4967094,74.0117551000003,0,0
1704,9(,1,51,12,62,32,42,22,Abstract_Concrete_6tasks_simseq_2seq_listtask_switchAB_fMRI,169609,45123,21435,6,9,209,B5,tools,6,9(,5619.4849543,5703.4961646,84.0112103000001,0,0
1177,7&,1,52,11,62,32,42,22,Abstract_Concrete_6tasks_simseq_2seq_listtask_switchAB_fMRI,169609,45123,21435,6,10,210,A1,weapon,5,7&,5619.4849543,5712.4977395,93.0127851999996,0,0
2356,8*,1,52,12,61,32,42,21,Abstract_Concrete_6tasks_simseq_2seq_listtask_switchAB_fMRI,169609,45123,21435,6,11,211,B2,helmet,1,8*,5619.4849543,5721.4983353,102.013381,0,0
2858,2@,1,52,12,61,31,41,21,Abstract_Concrete_6tasks_simseq_2seq_listtask_switchAB_fMRI,169609,45123,21435,6,12,212,A4,vest,2,2@,5619.4849543,5731.4964813,112.011527,0,0
2942,7&,1,52,11,62,31,42,21,Abstract_Concrete_6tasks_simseq_2seq_listtask_switchAB_fMRI,169609,45123,21435,6,13,213,B3,weapon,5,7&,5619.4849543,5741.4968468,122.0118925,0,0
2383,2@,1,51,12,62,31,41,22,Abstract_Concrete_6tasks_simseq_2seq_listtask_switchAB_fMRI,169609,45123,21435,6,14,214,A4,vest,2,2@,5619.4849543,5751.4980987,132.0131444,0,0
2317,4$,1,52,11,61,31,42,21,Abstract_Concrete_6tasks_simseq_2seq_listtask_switchAB_fMRI,169609,45123,21435,6,15,215,B4,glasses,3,4$,5619.4849543,5761.4971328,142.0121785,0,0
3200,4$,1,52,12,62,32,42,22,Abstract_Concrete_6tasks_simseq_2seq_listtask_switchAB_fMRI,169609,45123,21435,6,16,216,A5,glasses,3,4$,5619.4849543,5771.4986177,152.0136634,0,0
2099,9(,1,51,11,62,31,41,22,Abstract_Concrete_6tasks_simseq_2seq_listtask_switchAB_fMRI,169609,45123,21435,6,17,217,B5,tools,6,9(,5619.4849543,5782.4973597,163.0124054,0,0
2978,9(,1,52,11,61,32,42,21,Abstract_Concrete_6tasks_simseq_2seq_listtask_switchAB_fMRI,169609,45123,21435,6,18,218,A2,tools,6,9(,5619.4849543,5792.4975794,173.0126251,0,0
2056,4$,1,51,12,62,32,41,22,Abstract_Concrete_6tasks_simseq_2seq_listtask_switchAB_fMRI,169609,45123,21435,6,19,219,B4,glasses,3,4$,5619.4849543,5802.4964849,183.0115306,0,0
1997,2@,1,52,11,62,31,42,21,Abstract_Concrete_6tasks_simseq_2seq_listtask_switchAB_fMRI,169609,45123,21435,6,20,220,A4,vest,2,2@,5619.4849543,5812.4970004,193.0120461,0,0
2065,7&,1,51,12,61,31,42,22,Abstract_Concrete_6tasks_simseq_2seq_listtask_switchAB_fMRI,169609,45123,21435,6,21,221,B3,weapon,5,7&,5619.4849543,5822.4977152,203.0127609,0,0
1206,7&,1,52,11,61,32,42,22,Abstract_Concrete_6tasks_simseq_2seq_listtask_switchAB_fMRI,169609,45123,21435,6,22,222,A1,weapon,5,7&,5619.4849543,5832.4977882,213.0128339,0,0
1344,2@,1,51,11,62,31,42,22,Abstract_Concrete_6tasks_simseq_2seq_listtask_switchAB_fMRI,169609,45123,21435,6,23,223,B1,vest,2,2@,5619.4849543,5841.4957254,222.0107711,0,0
3389,9(,1,52,11,61,32,41,22,Abstract_Concrete_6tasks_simseq_2seq_listtask_switchAB_fMRI,169609,45123,21435,6,24,224,A2,tools,6,9(,5619.4849543,5850.4970216,231.0120673,0,0
3077,4$,1,51,12,62,31,42,22,Abstract_Concrete_6tasks_simseq_2seq_listtask_switchAB_fMRI,169609,45123,21435,6,25,225,B4,glasses,3,4$,5619.4849543,5861.4968646,242.0119103,0,0
1904,9(,1,52,11,62,31,42,22,Abstract_Concrete_6tasks_simseq_2seq_listtask_switchAB_fMRI,169609,45123,21435,6,26,226,A2,tools,6,9(,5619.4849543,5872.4989341,253.0139798,0,0
1345,2@,1,51,12,61,31,42,22,Abstract_Concrete_6tasks_simseq_2seq_listtask_switchAB_fMRI,169609,45123,21435,6,27,227,B1,vest,2,2@,5619.4849543,5881.4955463,262.010592,0,0
2100,7&,1,51,12,62,32,42,21,Abstract_Concrete_6tasks_simseq_2seq_listtask_switchAB_fMRI,169609,45123,21435,6,28,228,A1,weapon,5,7&,5619.4849543,5890.4981253,271.013171,0,0
1865,9(,0,52,12,62,32,42,22,Abstract_Concrete_6tasks_simseq_2seq_listtask_switchAB_fMRI,169609,45123,21435,6,29,229,B2,helmet,1,8*,5619.4849543,5900.497186,281.0122317,5902.3783396,282.8933853
6020,9(,0,52,11,61,31,42,21,Abstract_Concrete_6tasks_simseq_2seq_listtask_switchAB_fMRI,169609,45123,21435,6,30,230,A3,helmet,1,8*,5619.4849543,5909.496859,290.0119047,5915.53035,296.0453957
1669,9(,1,51,11,61,31,41,22,Abstract_Concrete_6tasks_simseq_2seq_listtask_switchAB_fMRI,169609,45123,21435,6,31,231,B5,tools,6,9(,5619.4849543,5923.4945819,304.0096276,0,0
2198,8*,1,52,12,62,32,41,22,Abstract_Concrete_6tasks_simseq_2seq_listtask_switchAB_fMRI,169609,45123,21435,6,32,232,A3,helmet,1,8*,5619.4849543,5932.4958048,313.0108505,0,0
2062,9(,1,51,12,61,32,42,21,Abstract_Concrete_6tasks_simseq_2seq_listtask_switchAB_fMRI,169609,45123,21435,6,33,233,B5,tools,6,9(,5619.4849543,5942.4968171,323.0118628,0,0
1173,8*,1,52,12,62,31,42,22,Abstract_Concrete_6tasks_simseq_2seq_listtask_switchAB_fMRI,169609,45123,21435,6,34,234,A3,helmet,1,8*,5619.4849543,5952.4989146,333.0139603,0,0
2750,7&,1,51,11,61,31,41,21,Abstract_Concrete_6tasks_simseq_2seq_listtask_switchAB_fMRI,169609,45123,21435,6,35,235,B3,weapon,5,7&,5619.4849543,5961.4966461,342.0116918,0,0
3831,2@,1,52,11,62,31,42,22,Abstract_Concrete_6tasks_simseq_2seq_listtask_switchAB_fMRI,169609,45123,21435,6,36,236,A4,vest,2,2@,5619.4849543,5971.4960973,352.011143,0,0
2086,8*,1,51,12,61,31,42,21,Abstract_Concrete_6tasks_simseq_2seq_listtask_switchAB_fMRI,169609,45123,21435,6,37,237,B2,helmet,1,8*,5619.4849543,5982.494974,363.0100197,0,0
2063,4$,1,51,12,61,31,41,21,Abstract_Concrete_6tasks_simseq_2seq_listtask_switchAB_fMRI,169609,45123,21435,6,38,238,A5,glasses,3,4$,5619.4849543,5992.4982789,373.0133246,0,0
3357,4$,1,51,12,62,32,42,21,Abstract_Concrete_6tasks_simseq_2seq_listtask_switchAB_fMRI,169609,45123,21435,6,39,239,B4,glasses,3,4$,5619.4849543,6002.4962876,383.0113333,0,0
936,7&,1,52,11,61,31,41,21,Abstract_Concrete_6tasks_simseq_2seq_listtask_switchAB_fMRI,169609,45123,21435,6,40,240,A1,weapon,5,7&,5619.4849543,6013.4956263,394.010672,0,0
