rt1,resp1,correct1,features_1,features_2,features_3,features_4,features_5,features_6,ExpName,subNo,seqA,seqB,block,trial,trialnum,cuetype,task,subtaskcode,corr_resp1,onsetTime_s,onsetTime_cue,onset_cue,onsetTime_cue_fb,onset_cue_fb
4857,7&,1,12,61,31,22,41,52,Abstract_Concrete_6tasks_simseq_2seq_listtask_switchAB_fMRI,176009,45321,23415,1,1,1,B4,helmet,1,7&,4642.5018083,4650.5117093,8.00990099999945,0,0
4165,9(,1,11,62,31,21,41,51,Abstract_Concrete_6tasks_simseq_2seq_listtask_switchAB_fMRI,176009,45321,23415,1,2,2,A3,glasses,3,9(,4642.5018083,4662.5121476,20.0103392999999,0,0
3183,2@,1,11,61,32,21,42,52,Abstract_Concrete_6tasks_simseq_2seq_listtask_switchAB_fMRI,176009,45321,23415,1,3,3,B3,weapon,5,2@,4642.5018083,4674.5142306,32.0124222999993,0,0
3971,7&,1,12,61,31,22,42,51,Abstract_Concrete_6tasks_simseq_2seq_listtask_switchAB_fMRI,176009,45321,23415,1,4,4,A5,helmet,1,7&,4642.5018083,4685.5129873,43.0111789999992,0,0
6932,9(,0,11,62,32,21,41,51,Abstract_Concrete_6tasks_simseq_2seq_listtask_switchAB_fMRI,176009,45321,23415,1,5,5,B4,helmet,1,7&,4642.5018083,4696.5124381,54.0106297999992,4703.4645035,60.9626951999999
3277,2@,1,11,61,31,22,41,51,Abstract_Concrete_6tasks_simseq_2seq_listtask_switchAB_fMRI,176009,45321,23415,1,6,6,A1,weapon,5,2@,4642.5018083,4710.5141879,68.0123795999998,0,0
3090,9(,1,11,61,32,22,41,51,Abstract_Concrete_6tasks_simseq_2seq_listtask_switchAB_fMRI,176009,45321,23415,1,7,7,B2,glasses,3,9(,4642.5018083,4721.513801,79.0119926999996,0,0
6159,7&,1,12,61,32,21,41,51,Abstract_Concrete_6tasks_simseq_2seq_listtask_switchAB_fMRI,176009,45321,23415,1,8,8,A5,helmet,1,7&,4642.5018083,4732.5130118,90.0112034999993,0,0
2884,9(,1,11,62,31,21,41,51,Abstract_Concrete_6tasks_simseq_2seq_listtask_switchAB_fMRI,176009,45321,23415,1,9,9,B2,glasses,3,9(,4642.5018083,4746.514376,104.0125677,0,0
3902,8*,1,12,61,31,22,41,51,Abstract_Concrete_6tasks_simseq_2seq_listtask_switchAB_fMRI,176009,45321,23415,1,10,10,A2,tools,6,8*,4642.5018083,4756.5121997,114.010391399999,0,0
2918,2@,1,11,61,32,21,41,52,Abstract_Concrete_6tasks_simseq_2seq_listtask_switchAB_fMRI,176009,45321,23415,1,11,11,B3,weapon,5,2@,4642.5018083,4767.5127979,125.010989599999,0,0
4398,4$,1,11,62,31,21,42,51,Abstract_Concrete_6tasks_simseq_2seq_listtask_switchAB_fMRI,176009,45321,23415,1,12,12,A4,vest,2,4$,4642.5018083,4777.5130544,135.0112461,0,0
2901,4$,1,12,61,32,22,41,52,Abstract_Concrete_6tasks_simseq_2seq_listtask_switchAB_fMRI,176009,45321,23415,1,13,13,B1,vest,2,4$,4642.5018083,4789.5151267,147.0133184,0,0
6250,7&,1,11,62,31,22,41,52,Abstract_Concrete_6tasks_simseq_2seq_listtask_switchAB_fMRI,176009,45321,23415,1,14,14,A5,helmet,1,7&,4642.5018083,4799.5128426,157.0110343,0,0
3283,8*,1,11,62,31,21,41,51,Abstract_Concrete_6tasks_simseq_2seq_listtask_switchAB_fMRI,176009,45321,23415,1,15,15,B5,tools,6,8*,4642.5018083,4813.5156502,171.0138419,0,0
3168,2@,1,11,61,32,22,42,51,Abstract_Concrete_6tasks_simseq_2seq_listtask_switchAB_fMRI,176009,45321,23415,1,16,16,A1,weapon,5,2@,4642.5018083,4824.513745,182.0119367,0,0
2242,2@,1,12,61,32,22,42,52,Abstract_Concrete_6tasks_simseq_2seq_listtask_switchAB_fMRI,176009,45321,23415,1,17,17,B3,weapon,5,2@,4642.5018083,4835.515396,193.013587699999,0,0
4081,2@,1,12,62,32,22,41,52,Abstract_Concrete_6tasks_simseq_2seq_listtask_switchAB_fMRI,176009,45321,23415,1,18,18,A1,weapon,5,2@,4642.5018083,4845.5118968,203.010088499999,0,0
1335,9(,1,11,62,31,22,41,52,Abstract_Concrete_6tasks_simseq_2seq_listtask_switchAB_fMRI,176009,45321,23415,1,19,19,B2,glasses,3,9(,4642.5018083,4857.5172166,215.0154083,0,0
2903,4$,1,12,61,32,22,41,52,Abstract_Concrete_6tasks_simseq_2seq_listtask_switchAB_fMRI,176009,45321,23415,1,20,20,A4,vest,2,4$,4642.5018083,4866.5148576,224.0130493,0,0
4959,7&,1,12,61,32,22,42,52,Abstract_Concrete_6tasks_simseq_2seq_listtask_switchAB_fMRI,176009,45321,23415,1,21,21,B4,helmet,1,7&,4642.5018083,4876.5128793,234.011071,0,0
2702,8*,1,11,62,32,22,41,52,Abstract_Concrete_6tasks_simseq_2seq_listtask_switchAB_fMRI,176009,45321,23415,1,22,22,A2,tools,6,8*,4642.5018083,4888.5121059,246.0102976,0,0
1491,9(,1,12,62,32,22,42,52,Abstract_Concrete_6tasks_simseq_2seq_listtask_switchAB_fMRI,176009,45321,23415,1,23,23,B2,glasses,3,9(,4642.5018083,4898.512571,256.0107627,0,0
1641,2@,1,11,61,32,22,41,51,Abstract_Concrete_6tasks_simseq_2seq_listtask_switchAB_fMRI,176009,45321,23415,1,24,24,A1,weapon,5,2@,4642.5018083,4907.5132007,265.0113924,0,0
2754,4$,1,12,61,31,22,41,52,Abstract_Concrete_6tasks_simseq_2seq_listtask_switchAB_fMRI,176009,45321,23415,1,25,25,B1,vest,2,4$,4642.5018083,4916.5145336,274.012725299999,0,0
4464,9(,1,12,62,31,22,41,52,Abstract_Concrete_6tasks_simseq_2seq_listtask_switchAB_fMRI,176009,45321,23415,1,26,26,A3,glasses,3,9(,4642.5018083,4926.5131081,284.0112998,0,0
1411,4$,1,11,62,32,21,42,51,Abstract_Concrete_6tasks_simseq_2seq_listtask_switchAB_fMRI,176009,45321,23415,1,27,27,B1,vest,2,4$,4642.5018083,4938.5133959,296.0115876,0,0
4197,7&,1,11,61,31,21,41,51,Abstract_Concrete_6tasks_simseq_2seq_listtask_switchAB_fMRI,176009,45321,23415,1,28,28,A5,helmet,1,7&,4642.5018083,4947.5146669,305.012858599999,0,0
1208,4$,1,11,61,31,22,42,51,Abstract_Concrete_6tasks_simseq_2seq_listtask_switchAB_fMRI,176009,45321,23415,1,29,29,B1,vest,2,4$,4642.5018083,4959.5126857,317.010877399999,0,0
3937,9(,1,12,62,31,22,41,52,Abstract_Concrete_6tasks_simseq_2seq_listtask_switchAB_fMRI,176009,45321,23415,1,30,30,A3,glasses,3,9(,4642.5018083,4968.5148294,326.0130211,0,0
4268,8*,1,12,61,31,22,42,52,Abstract_Concrete_6tasks_simseq_2seq_listtask_switchAB_fMRI,176009,45321,23415,1,31,31,B5,tools,6,8*,4642.5018083,4979.5121871,337.0103788,0,0
1395,9(,1,12,61,32,21,41,51,Abstract_Concrete_6tasks_simseq_2seq_listtask_switchAB_fMRI,176009,45321,23415,1,32,32,A3,glasses,3,9(,4642.5018083,4991.5135256,349.0117173,0,0
3003,7&,1,12,62,32,22,41,52,Abstract_Concrete_6tasks_simseq_2seq_listtask_switchAB_fMRI,176009,45321,23415,1,33,33,B4,helmet,1,7&,4642.5018083,5000.5147544,358.0129461,0,0
2047,8*,1,12,61,32,22,42,52,Abstract_Concrete_6tasks_simseq_2seq_listtask_switchAB_fMRI,176009,45321,23415,1,34,34,A2,tools,6,8*,4642.5018083,5011.5148396,369.0130313,0,0
1560,8*,1,12,61,32,21,41,52,Abstract_Concrete_6tasks_simseq_2seq_listtask_switchAB_fMRI,176009,45321,23415,1,35,35,B5,tools,6,8*,4642.5018083,5021.5134029,379.0115946,0,0
2267,4$,1,11,62,32,21,41,52,Abstract_Concrete_6tasks_simseq_2seq_listtask_switchAB_fMRI,176009,45321,23415,1,36,36,A4,vest,2,4$,4642.5018083,5030.5124635,388.0106552,0,0
2583,2@,1,11,62,31,21,42,51,Abstract_Concrete_6tasks_simseq_2seq_listtask_switchAB_fMRI,176009,45321,23415,1,37,37,B3,weapon,5,2@,4642.5018083,5040.5123137,398.0105054,0,0
4234,4$,1,11,62,32,21,41,51,Abstract_Concrete_6tasks_simseq_2seq_listtask_switchAB_fMRI,176009,45321,23415,1,38,38,A4,vest,2,4$,4642.5018083,5050.5145653,408.012757,0,0
1981,8*,1,11,61,32,21,42,51,Abstract_Concrete_6tasks_simseq_2seq_listtask_switchAB_fMRI,176009,45321,23415,1,39,39,B5,tools,6,8*,4642.5018083,5062.5137438,420.0119355,0,0
3159,8*,1,11,62,32,21,41,51,Abstract_Concrete_6tasks_simseq_2seq_listtask_switchAB_fMRI,176009,45321,23415,1,40,40,A2,tools,6,8*,4642.5018083,5071.5130786,429.0112703,0,0
4401,2@,1,12,61,32,22,41,51,Abstract_Concrete_6tasks_simseq_2seq_listtask_switchAB_fMRI,176009,45321,23415,2,1,41,B3,weapon,5,2@,5127.7861975,5135.79402890612,8.00783140612293,0,0
2512,8*,1,11,61,32,21,41,52,Abstract_Concrete_6tasks_simseq_2seq_listtask_switchAB_fMRI,176009,45321,23415,2,2,42,A2,tools,6,8*,5127.7861975,5147.79333040561,20.0071329056127,0,0
1354,7&,1,11,62,31,21,42,51,Abstract_Concrete_6tasks_simseq_2seq_listtask_switchAB_fMRI,176009,45321,23415,2,3,43,B4,helmet,1,7&,5127.7861975,5157.79309988418,30.0069023841843,0,0
1201,7&,1,11,62,32,22,42,52,Abstract_Concrete_6tasks_simseq_2seq_listtask_switchAB_fMRI,176009,45321,23415,2,4,44,A5,helmet,1,7&,5127.7861975,5166.7982061,39.0120086000006,0,0
2128,7&,1,12,61,31,22,41,51,Abstract_Concrete_6tasks_simseq_2seq_listtask_switchAB_fMRI,176009,45321,23415,2,5,45,B4,helmet,1,7&,5127.7861975,5175.7986974,48.0124999,0,0
1407,2@,1,11,61,32,22,42,52,Abstract_Concrete_6tasks_simseq_2seq_listtask_switchAB_fMRI,176009,45321,23415,2,6,46,A1,weapon,5,2@,5127.7861975,5185.7998922,58.0136947000001,0,0
1276,4$,1,11,62,31,22,41,52,Abstract_Concrete_6tasks_simseq_2seq_listtask_switchAB_fMRI,176009,45321,23415,2,7,47,B1,vest,2,4$,5127.7861975,5194.7972457,67.0110482,0,0
3927,7&,1,12,62,32,22,41,52,Abstract_Concrete_6tasks_simseq_2seq_listtask_switchAB_fMRI,176009,45321,23415,2,8,48,A5,helmet,1,7&,5127.7861975,5203.7996476,76.0134501000002,0,0
2424,4$,1,12,61,32,22,41,52,Abstract_Concrete_6tasks_simseq_2seq_listtask_switchAB_fMRI,176009,45321,23415,2,9,49,B1,vest,2,4$,5127.7861975,5214.7969307,87.0107332000007,0,0
1237,7&,1,11,61,31,21,42,51,Abstract_Concrete_6tasks_simseq_2seq_listtask_switchAB_fMRI,176009,45321,23415,2,10,50,A5,helmet,1,7&,5127.7861975,5224.7981661,97.0119686000007,0,0
1992,7&,1,12,61,31,21,42,51,Abstract_Concrete_6tasks_simseq_2seq_listtask_switchAB_fMRI,176009,45321,23415,2,11,51,B4,helmet,1,7&,5127.7861975,5233.7980825,106.011885000001,0,0
1485,4$,1,12,62,32,21,42,51,Abstract_Concrete_6tasks_simseq_2seq_listtask_switchAB_fMRI,176009,45321,23415,2,12,52,A4,vest,2,4$,5127.7861975,5243.7997511,116.013553600001,0,0
2031,2@,1,11,62,32,22,42,52,Abstract_Concrete_6tasks_simseq_2seq_listtask_switchAB_fMRI,176009,45321,23415,2,13,53,B3,weapon,5,2@,5127.7861975,5252.7991564,125.012958900001,0,0
1378,2@,1,11,62,32,21,41,51,Abstract_Concrete_6tasks_simseq_2seq_listtask_switchAB_fMRI,176009,45321,23415,2,14,54,A1,weapon,5,2@,5127.7861975,5262.7993275,135.01313,0,0
1556,2@,1,11,62,32,21,41,51,Abstract_Concrete_6tasks_simseq_2seq_listtask_switchAB_fMRI,176009,45321,23415,2,15,55,B3,weapon,5,2@,5127.7861975,5271.7981802,144.011982700001,0,0
1826,8*,1,12,62,31,21,41,52,Abstract_Concrete_6tasks_simseq_2seq_listtask_switchAB_fMRI,176009,45321,23415,2,16,56,A2,tools,6,8*,5127.7861975,5280.7979843,153.011786800001,0,0
2058,9(,1,12,61,31,21,41,51,Abstract_Concrete_6tasks_simseq_2seq_listtask_switchAB_fMRI,176009,45321,23415,2,17,57,B2,glasses,3,9(,5127.7861975,5289.7975494,162.011351900001,0,0
1979,4$,1,12,62,32,22,42,52,Abstract_Concrete_6tasks_simseq_2seq_listtask_switchAB_fMRI,176009,45321,23415,2,18,58,A4,vest,2,4$,5127.7861975,5299.7977218,172.0115243,0,0
1701,9(,1,12,62,31,21,41,52,Abstract_Concrete_6tasks_simseq_2seq_listtask_switchAB_fMRI,176009,45321,23415,2,19,59,B2,glasses,3,9(,5127.7861975,5308.7966796,181.0104821,0,0
1098,4$,1,11,62,31,22,42,51,Abstract_Concrete_6tasks_simseq_2seq_listtask_switchAB_fMRI,176009,45321,23415,2,20,60,A4,vest,2,4$,5127.7861975,5317.798592,190.0123945,0,0
1409,4$,1,11,62,32,21,42,51,Abstract_Concrete_6tasks_simseq_2seq_listtask_switchAB_fMRI,176009,45321,23415,2,21,61,B1,vest,2,4$,5127.7861975,5326.7987496,199.0125521,0,0
1500,9(,1,12,62,32,21,42,51,Abstract_Concrete_6tasks_simseq_2seq_listtask_switchAB_fMRI,176009,45321,23415,2,22,62,A3,glasses,3,9(,5127.7861975,5335.7977176,208.011520100001,0,0
2631,8*,1,12,61,32,22,41,52,Abstract_Concrete_6tasks_simseq_2seq_listtask_switchAB_fMRI,176009,45321,23415,2,23,63,B5,tools,6,8*,5127.7861975,5344.7993847,217.0131872,0,0
2768,7&,1,12,61,31,22,41,52,Abstract_Concrete_6tasks_simseq_2seq_listtask_switchAB_fMRI,176009,45321,23415,2,24,64,A5,helmet,1,7&,5127.7861975,5354.7997231,227.0135256,0,0
2490,8*,1,12,62,32,22,42,52,Abstract_Concrete_6tasks_simseq_2seq_listtask_switchAB_fMRI,176009,45321,23415,2,25,65,B5,tools,6,8*,5127.7861975,5364.7965705,237.010373,0,0
1992,4$,1,12,61,31,21,41,52,Abstract_Concrete_6tasks_simseq_2seq_listtask_switchAB_fMRI,176009,45321,23415,2,26,66,A4,vest,2,4$,5127.7861975,5374.7977211,247.0115236,0,0
1821,8*,1,12,62,31,22,41,51,Abstract_Concrete_6tasks_simseq_2seq_listtask_switchAB_fMRI,176009,45321,23415,2,27,67,B5,tools,6,8*,5127.7861975,5384.799701,257.0135035,0,0
1545,8*,1,12,62,32,21,42,52,Abstract_Concrete_6tasks_simseq_2seq_listtask_switchAB_fMRI,176009,45321,23415,2,28,68,A2,tools,6,8*,5127.7861975,5393.7990924,266.0128949,0,0
1673,2@,1,12,61,32,21,42,51,Abstract_Concrete_6tasks_simseq_2seq_listtask_switchAB_fMRI,176009,45321,23415,2,29,69,B3,weapon,5,2@,5127.7861975,5402.7976566,275.0114591,0,0
1146,2@,1,12,62,31,22,42,51,Abstract_Concrete_6tasks_simseq_2seq_listtask_switchAB_fMRI,176009,45321,23415,2,30,70,A1,weapon,5,2@,5127.7861975,5411.7994806,284.0132831,0,0
1510,9(,1,12,62,31,22,42,51,Abstract_Concrete_6tasks_simseq_2seq_listtask_switchAB_fMRI,176009,45321,23415,2,31,71,B2,glasses,3,9(,5127.7861975,5420.7978415,293.011644,0,0
1162,8*,1,12,62,31,21,41,52,Abstract_Concrete_6tasks_simseq_2seq_listtask_switchAB_fMRI,176009,45321,23415,2,32,72,A2,tools,6,8*,5127.7861975,5429.8000803,302.013882800001,0,0
1945,9(,1,11,62,32,21,41,52,Abstract_Concrete_6tasks_simseq_2seq_listtask_switchAB_fMRI,176009,45321,23415,2,33,73,B2,glasses,3,9(,5127.7861975,5438.7965412,311.010343700001,0,0
2098,9(,1,12,62,32,22,42,52,Abstract_Concrete_6tasks_simseq_2seq_listtask_switchAB_fMRI,176009,45321,23415,2,34,74,A3,glasses,3,9(,5127.7861975,5447.795962,320.009764500001,0,0
3240,8*,1,12,62,31,21,41,52,Abstract_Concrete_6tasks_simseq_2seq_listtask_switchAB_fMRI,176009,45321,23415,2,35,75,B5,tools,6,8*,5127.7861975,5457.7991395,330.012942,0,0
1225,9(,1,11,61,32,22,41,51,Abstract_Concrete_6tasks_simseq_2seq_listtask_switchAB_fMRI,176009,45321,23415,2,36,76,A3,glasses,3,9(,5127.7861975,5468.7965089,341.0103114,0,0
1391,4$,1,11,62,31,22,42,51,Abstract_Concrete_6tasks_simseq_2seq_listtask_switchAB_fMRI,176009,45321,23415,2,37,77,B1,vest,2,4$,5127.7861975,5477.7976647,350.0114672,0,0
1510,2@,1,11,62,32,22,42,52,Abstract_Concrete_6tasks_simseq_2seq_listtask_switchAB_fMRI,176009,45321,23415,2,38,78,A1,weapon,5,2@,5127.7861975,5486.7968319,359.010634400001,0,0
1812,7&,1,11,62,32,22,42,52,Abstract_Concrete_6tasks_simseq_2seq_listtask_switchAB_fMRI,176009,45321,23415,2,39,79,B4,helmet,1,7&,5127.7861975,5495.7970017,368.0108042,0,0
2986,9(,1,12,61,31,22,42,51,Abstract_Concrete_6tasks_simseq_2seq_listtask_switchAB_fMRI,176009,45321,23415,2,40,80,A3,glasses,3,9(,5127.7861975,5504.7981592,377.0119617,0,0
1909,4$,1,12,61,32,21,42,51,Abstract_Concrete_6tasks_simseq_2seq_listtask_switchAB_fMRI,176009,45321,23415,3,1,81,B1,vest,2,4$,5562.5010578,5570.5108299,8.00977210000019,0,0
1483,2@,1,12,62,32,22,42,51,Abstract_Concrete_6tasks_simseq_2seq_listtask_switchAB_fMRI,176009,45321,23415,3,2,82,A1,weapon,5,2@,5562.5010578,5579.5119324,17.0108745999996,0,0
1264,8*,1,12,61,31,22,41,51,Abstract_Concrete_6tasks_simseq_2seq_listtask_switchAB_fMRI,176009,45321,23415,3,3,83,B5,tools,6,8*,5562.5010578,5588.5140631,26.0130053000003,0,0
2767,4$,1,12,61,32,22,42,52,Abstract_Concrete_6tasks_simseq_2seq_listtask_switchAB_fMRI,176009,45321,23415,3,4,84,A4,vest,2,4$,5562.5010578,5597.5147819,35.0137241000002,0,0
2325,7&,1,11,61,31,21,41,51,Abstract_Concrete_6tasks_simseq_2seq_listtask_switchAB_fMRI,176009,45321,23415,3,5,85,B4,helmet,1,7&,5562.5010578,5607.5111638,45.0101059999997,0,0
1961,7&,1,12,62,32,21,41,52,Abstract_Concrete_6tasks_simseq_2seq_listtask_switchAB_fMRI,176009,45321,23415,3,6,86,A5,helmet,1,7&,5562.5010578,5617.5126745,55.0116166999996,0,0
2038,8*,1,11,62,31,22,41,51,Abstract_Concrete_6tasks_simseq_2seq_listtask_switchAB_fMRI,176009,45321,23415,3,7,87,B5,tools,6,8*,5562.5010578,5626.5138281,64.0127702999998,0,0
2614,8*,1,12,61,32,22,42,51,Abstract_Concrete_6tasks_simseq_2seq_listtask_switchAB_fMRI,176009,45321,23415,3,8,88,A2,tools,6,8*,5562.5010578,5636.5133478,74.0122899999997,0,0
1761,2@,1,12,61,32,22,41,52,Abstract_Concrete_6tasks_simseq_2seq_listtask_switchAB_fMRI,176009,45321,23415,3,9,89,B3,weapon,5,2@,5562.5010578,5646.5141443,84.0130865000001,0,0
1843,7&,1,12,61,31,21,42,51,Abstract_Concrete_6tasks_simseq_2seq_listtask_switchAB_fMRI,176009,45321,23415,3,10,90,A5,helmet,1,7&,5562.5010578,5655.5123381,93.0112803000002,0,0
1615,7&,1,12,61,31,21,41,51,Abstract_Concrete_6tasks_simseq_2seq_listtask_switchAB_fMRI,176009,45321,23415,3,11,91,B4,helmet,1,7&,5562.5010578,5664.5116149,102.010557099999,0,0
1537,9(,1,11,62,31,21,42,52,Abstract_Concrete_6tasks_simseq_2seq_listtask_switchAB_fMRI,176009,45321,23415,3,12,92,A3,glasses,3,9(,5562.5010578,5673.513338,111.0122802,0,0
1626,7&,1,12,61,32,21,41,51,Abstract_Concrete_6tasks_simseq_2seq_listtask_switchAB_fMRI,176009,45321,23415,3,13,93,B4,helmet,1,7&,5562.5010578,5682.5121678,120.011109999999,0,0
1370,7&,1,12,62,31,21,41,51,Abstract_Concrete_6tasks_simseq_2seq_listtask_switchAB_fMRI,176009,45321,23415,3,14,94,A5,helmet,1,7&,5562.5010578,5691.5139586,129.012900799999,0,0
2033,9(,1,11,62,31,22,41,52,Abstract_Concrete_6tasks_simseq_2seq_listtask_switchAB_fMRI,176009,45321,23415,3,15,95,B2,glasses,3,9(,5562.5010578,5700.5142708,138.013213,0,0
2578,7&,1,11,61,32,22,42,51,Abstract_Concrete_6tasks_simseq_2seq_listtask_switchAB_fMRI,176009,45321,23415,3,16,96,A5,helmet,1,7&,5562.5010578,5710.5127651,148.0117073,0,0
1490,2@,1,12,61,31,22,42,52,Abstract_Concrete_6tasks_simseq_2seq_listtask_switchAB_fMRI,176009,45321,23415,3,17,97,B3,weapon,5,2@,5562.5010578,5720.5128041,158.0117463,0,0
1962,9(,1,12,62,31,22,41,52,Abstract_Concrete_6tasks_simseq_2seq_listtask_switchAB_fMRI,176009,45321,23415,3,18,98,A3,glasses,3,9(,5562.5010578,5729.5145795,167.0135217,0,0
1642,7&,1,11,61,31,21,41,51,Abstract_Concrete_6tasks_simseq_2seq_listtask_switchAB_fMRI,176009,45321,23415,3,19,99,B4,helmet,1,7&,5562.5010578,5738.5143893,176.0133315,0,0
1359,2@,1,11,62,31,22,41,52,Abstract_Concrete_6tasks_simseq_2seq_listtask_switchAB_fMRI,176009,45321,23415,3,20,100,A1,weapon,5,2@,5562.5010578,5747.5136523,185.0125945,0,0
2072,9(,1,12,61,31,22,42,52,Abstract_Concrete_6tasks_simseq_2seq_listtask_switchAB_fMRI,176009,45321,23415,3,21,101,B2,glasses,3,9(,5562.5010578,5756.5149832,194.0139254,0,0
1246,2@,1,11,62,32,22,41,52,Abstract_Concrete_6tasks_simseq_2seq_listtask_switchAB_fMRI,176009,45321,23415,3,22,102,A1,weapon,5,2@,5562.5010578,5766.5133382,204.0122804,0,0
2291,8*,1,11,62,32,22,41,51,Abstract_Concrete_6tasks_simseq_2seq_listtask_switchAB_fMRI,176009,45321,23415,3,23,103,B5,tools,6,8*,5562.5010578,5775.513304,213.0122462,0,0
3368,4$,1,11,62,32,22,42,51,Abstract_Concrete_6tasks_simseq_2seq_listtask_switchAB_fMRI,176009,45321,23415,3,24,104,A4,vest,2,4$,5562.5010578,5785.5145067,223.0134489,0,0
1265,9(,1,11,61,32,22,41,51,Abstract_Concrete_6tasks_simseq_2seq_listtask_switchAB_fMRI,176009,45321,23415,3,25,105,B2,glasses,3,9(,5562.5010578,5796.5124075,234.0113497,0,0
2225,4$,1,12,61,32,22,41,51,Abstract_Concrete_6tasks_simseq_2seq_listtask_switchAB_fMRI,176009,45321,23415,3,26,106,A4,vest,2,4$,5562.5010578,5805.511933,243.0108752,0,0
1283,4$,1,11,62,31,22,41,52,Abstract_Concrete_6tasks_simseq_2seq_listtask_switchAB_fMRI,176009,45321,23415,3,27,107,B1,vest,2,4$,5562.5010578,5815.5131285,253.0120707,0,0
1579,8*,1,11,62,32,21,41,52,Abstract_Concrete_6tasks_simseq_2seq_listtask_switchAB_fMRI,176009,45321,23415,3,28,108,A2,tools,6,8*,5562.5010578,5824.5117513,262.010693499999,0,0
3288,4$,1,11,62,31,21,42,52,Abstract_Concrete_6tasks_simseq_2seq_listtask_switchAB_fMRI,176009,45321,23415,3,29,109,B1,vest,2,4$,5562.5010578,5833.5124216,271.0113638,0,0
2998,4$,1,11,61,31,21,41,52,Abstract_Concrete_6tasks_simseq_2seq_listtask_switchAB_fMRI,176009,45321,23415,3,30,110,A4,vest,2,4$,5562.5010578,5844.5125883,282.0115305,0,0
2115,8*,1,12,61,31,22,42,51,Abstract_Concrete_6tasks_simseq_2seq_listtask_switchAB_fMRI,176009,45321,23415,3,31,111,B5,tools,6,8*,5562.5010578,5855.5114725,293.0104147,0,0
1341,8*,1,11,61,31,21,41,51,Abstract_Concrete_6tasks_simseq_2seq_listtask_switchAB_fMRI,176009,45321,23415,3,32,112,A2,tools,6,8*,5562.5010578,5865.51188,303.0108222,0,0
1713,9(,1,11,61,32,22,41,51,Abstract_Concrete_6tasks_simseq_2seq_listtask_switchAB_fMRI,176009,45321,23415,3,33,113,B2,glasses,3,9(,5562.5010578,5874.5119843,312.0109265,0,0
2113,2@,1,12,61,32,22,42,52,Abstract_Concrete_6tasks_simseq_2seq_listtask_switchAB_fMRI,176009,45321,23415,3,34,114,A1,weapon,5,2@,5562.5010578,5883.511535,321.0104772,0,0
1296,2@,1,11,62,31,22,42,51,Abstract_Concrete_6tasks_simseq_2seq_listtask_switchAB_fMRI,176009,45321,23415,3,35,115,B3,weapon,5,2@,5562.5010578,5893.5126039,331.0115461,0,0
2000,9(,1,12,62,31,22,41,52,Abstract_Concrete_6tasks_simseq_2seq_listtask_switchAB_fMRI,176009,45321,23415,3,36,116,A3,glasses,3,9(,5562.5010578,5902.5141566,340.0130988,0,0
2635,2@,1,12,61,31,21,41,52,Abstract_Concrete_6tasks_simseq_2seq_listtask_switchAB_fMRI,176009,45321,23415,3,37,117,B3,weapon,5,2@,5562.5010578,5912.5146954,350.0136376,0,0
1750,9(,1,11,62,31,22,41,52,Abstract_Concrete_6tasks_simseq_2seq_listtask_switchAB_fMRI,176009,45321,23415,3,38,118,A3,glasses,3,9(,5562.5010578,5922.5137079,360.0126501,0,0
1219,4$,1,11,61,31,22,42,52,Abstract_Concrete_6tasks_simseq_2seq_listtask_switchAB_fMRI,176009,45321,23415,3,39,119,B1,vest,2,4$,5562.5010578,5931.5115599,369.0105021,0,0
1298,8*,1,12,61,31,22,41,52,Abstract_Concrete_6tasks_simseq_2seq_listtask_switchAB_fMRI,176009,45321,23415,3,40,120,A2,tools,6,8*,5562.5010578,5940.514301,378.0132432,0,0
1868,8*,1,11,61,32,21,42,52,Abstract_Concrete_6tasks_simseq_2seq_listtask_switchAB_fMRI,176009,45321,23415,4,1,121,B5,tools,6,8*,6119.6464337,6127.6567533,8.0103196,0,0
2038,9(,1,11,62,31,22,41,52,Abstract_Concrete_6tasks_simseq_2seq_listtask_switchAB_fMRI,176009,45321,23415,4,2,122,A3,glasses,3,9(,6119.6464337,6136.6594057,17.0129720000004,0,0
1690,7&,1,12,62,32,22,42,51,Abstract_Concrete_6tasks_simseq_2seq_listtask_switchAB_fMRI,176009,45321,23415,4,3,123,B4,helmet,1,7&,6119.6464337,6146.6590715,27.0126378000004,0,0
1428,2@,1,11,61,31,21,42,51,Abstract_Concrete_6tasks_simseq_2seq_listtask_switchAB_fMRI,176009,45321,23415,4,4,124,A1,weapon,5,2@,6119.6464337,6155.6571078,36.0106741,0,0
2395,2@,1,12,62,32,21,41,52,Abstract_Concrete_6tasks_simseq_2seq_listtask_switchAB_fMRI,176009,45321,23415,4,5,125,B3,weapon,5,2@,6119.6464337,6164.6597054,45.0132717000006,0,0
1787,7&,1,12,61,32,22,41,51,Abstract_Concrete_6tasks_simseq_2seq_listtask_switchAB_fMRI,176009,45321,23415,4,6,126,A5,helmet,1,7&,6119.6464337,6174.6601313,55.0136976000003,0,0
3073,7&,1,12,62,31,21,41,51,Abstract_Concrete_6tasks_simseq_2seq_listtask_switchAB_fMRI,176009,45321,23415,4,7,127,B4,helmet,1,7&,6119.6464337,6183.659604,64.0131703000006,0,0
1432,2@,1,11,62,32,22,41,51,Abstract_Concrete_6tasks_simseq_2seq_listtask_switchAB_fMRI,176009,45321,23415,4,8,128,A1,weapon,5,2@,6119.6464337,6194.6577088,75.0112751000006,0,0
3054,9(,1,12,62,31,21,41,52,Abstract_Concrete_6tasks_simseq_2seq_listtask_switchAB_fMRI,176009,45321,23415,4,9,129,B2,glasses,3,9(,6119.6464337,6203.658197,84.0117633,0,0
1876,8*,1,12,62,32,21,41,52,Abstract_Concrete_6tasks_simseq_2seq_listtask_switchAB_fMRI,176009,45321,23415,4,10,130,A2,tools,6,8*,6119.6464337,6214.6605637,95.0141300000005,0,0
2137,7&,1,12,61,31,21,42,51,Abstract_Concrete_6tasks_simseq_2seq_listtask_switchAB_fMRI,176009,45321,23415,4,11,131,B4,helmet,1,7&,6119.6464337,6223.6578398,104.0114061,0,0
3108,7&,1,11,62,32,22,42,52,Abstract_Concrete_6tasks_simseq_2seq_listtask_switchAB_fMRI,176009,45321,23415,4,12,132,A5,helmet,1,7&,6119.6464337,6233.659025,114.0125913,0,0
2511,2@,1,11,62,31,21,41,51,Abstract_Concrete_6tasks_simseq_2seq_listtask_switchAB_fMRI,176009,45321,23415,4,13,133,B3,weapon,5,2@,6119.6464337,6244.6606269,125.014193200001,0,0
2217,8*,1,11,62,32,21,41,52,Abstract_Concrete_6tasks_simseq_2seq_listtask_switchAB_fMRI,176009,45321,23415,4,14,134,A2,tools,6,8*,6119.6464337,6254.6597678,135.0133341,0,0
1521,8*,1,11,62,31,21,42,52,Abstract_Concrete_6tasks_simseq_2seq_listtask_switchAB_fMRI,176009,45321,23415,4,15,135,B5,tools,6,8*,6119.6464337,6264.6576612,145.0112275,0,0
2798,9(,1,11,62,32,22,41,51,Abstract_Concrete_6tasks_simseq_2seq_listtask_switchAB_fMRI,176009,45321,23415,4,16,136,A3,glasses,3,9(,6119.6464337,6273.6579405,154.0115068,0,0
1221,9(,1,12,62,32,22,42,51,Abstract_Concrete_6tasks_simseq_2seq_listtask_switchAB_fMRI,176009,45321,23415,4,17,137,B2,glasses,3,9(,6119.6464337,6283.658173,164.0117393,0,0
2352,4$,1,12,62,31,21,42,51,Abstract_Concrete_6tasks_simseq_2seq_listtask_switchAB_fMRI,176009,45321,23415,4,18,138,A4,vest,2,4$,6119.6464337,6292.6574532,173.011019500001,0,0
1924,9(,1,12,61,32,22,41,51,Abstract_Concrete_6tasks_simseq_2seq_listtask_switchAB_fMRI,176009,45321,23415,4,19,139,B2,glasses,3,9(,6119.6464337,6302.6590131,183.012579400001,0,0
1217,9(,1,11,62,32,22,42,51,Abstract_Concrete_6tasks_simseq_2seq_listtask_switchAB_fMRI,176009,45321,23415,4,20,140,A3,glasses,3,9(,6119.6464337,6311.6566291,192.0101954,0,0
1498,7&,1,11,61,31,21,42,51,Abstract_Concrete_6tasks_simseq_2seq_listtask_switchAB_fMRI,176009,45321,23415,4,21,141,B4,helmet,1,7&,6119.6464337,6320.6580264,201.011592700001,0,0
1715,4$,1,11,61,31,22,41,52,Abstract_Concrete_6tasks_simseq_2seq_listtask_switchAB_fMRI,176009,45321,23415,4,22,142,A4,vest,2,4$,6119.6464337,6329.6580776,210.0116439,0,0
1419,9(,1,11,62,32,22,41,52,Abstract_Concrete_6tasks_simseq_2seq_listtask_switchAB_fMRI,176009,45321,23415,4,23,143,B2,glasses,3,9(,6119.6464337,6338.6589036,219.0124699,0,0
1423,2@,1,12,62,32,21,42,52,Abstract_Concrete_6tasks_simseq_2seq_listtask_switchAB_fMRI,176009,45321,23415,4,24,144,A1,weapon,5,2@,6119.6464337,6347.6582858,228.0118521,0,0
1264,2@,1,12,62,31,21,41,52,Abstract_Concrete_6tasks_simseq_2seq_listtask_switchAB_fMRI,176009,45321,23415,4,25,145,B3,weapon,5,2@,6119.6464337,6356.6569252,237.0104915,0,0
1404,7&,1,12,62,32,21,42,52,Abstract_Concrete_6tasks_simseq_2seq_listtask_switchAB_fMRI,176009,45321,23415,4,26,146,A5,helmet,1,7&,6119.6464337,6365.6580771,246.0116434,0,0
2440,8*,1,11,61,32,22,42,52,Abstract_Concrete_6tasks_simseq_2seq_listtask_switchAB_fMRI,176009,45321,23415,4,27,147,B5,tools,6,8*,6119.6464337,6374.6593259,255.0128922,0,0
1600,7&,1,12,61,32,22,41,52,Abstract_Concrete_6tasks_simseq_2seq_listtask_switchAB_fMRI,176009,45321,23415,4,28,148,A5,helmet,1,7&,6119.6464337,6384.6581969,265.0117632,0,0
1551,4$,1,12,62,32,21,42,51,Abstract_Concrete_6tasks_simseq_2seq_listtask_switchAB_fMRI,176009,45321,23415,4,29,149,B1,vest,2,4$,6119.6464337,6393.6572308,274.010797100001,0,0
1725,4$,1,12,62,31,22,42,51,Abstract_Concrete_6tasks_simseq_2seq_listtask_switchAB_fMRI,176009,45321,23415,4,30,150,A4,vest,2,4$,6119.6464337,6402.6576389,283.0112052,0,0
1588,2@,1,11,61,31,22,42,51,Abstract_Concrete_6tasks_simseq_2seq_listtask_switchAB_fMRI,176009,45321,23415,4,31,151,B3,weapon,5,2@,6119.6464337,6411.6586713,292.0122376,0,0
1181,2@,1,11,62,32,22,42,51,Abstract_Concrete_6tasks_simseq_2seq_listtask_switchAB_fMRI,176009,45321,23415,4,32,152,A1,weapon,5,2@,6119.6464337,6420.6575678,301.0111341,0,0
1397,4$,1,12,61,32,21,42,52,Abstract_Concrete_6tasks_simseq_2seq_listtask_switchAB_fMRI,176009,45321,23415,4,33,153,B1,vest,2,4$,6119.6464337,6429.6582555,310.011821800001,0,0
1366,8*,1,11,61,32,21,42,52,Abstract_Concrete_6tasks_simseq_2seq_listtask_switchAB_fMRI,176009,45321,23415,4,34,154,A2,tools,6,8*,6119.6464337,6438.6589445,319.0125108,0,0
1968,8*,1,11,61,31,22,42,51,Abstract_Concrete_6tasks_simseq_2seq_listtask_switchAB_fMRI,176009,45321,23415,4,35,155,B5,tools,6,8*,6119.6464337,6447.6593491,328.012915400001,0,0
1543,9(,1,12,62,32,22,41,51,Abstract_Concrete_6tasks_simseq_2seq_listtask_switchAB_fMRI,176009,45321,23415,4,36,156,A3,glasses,3,9(,6119.6464337,6456.6594422,337.0130085,0,0
1666,4$,1,11,61,32,22,41,51,Abstract_Concrete_6tasks_simseq_2seq_listtask_switchAB_fMRI,176009,45321,23415,4,37,157,B1,vest,2,4$,6119.6464337,6465.6578962,346.011462500001,0,0
1564,4$,1,11,62,31,21,42,52,Abstract_Concrete_6tasks_simseq_2seq_listtask_switchAB_fMRI,176009,45321,23415,4,38,158,A4,vest,2,4$,6119.6464337,6474.6571095,355.0106758,0,0
2218,4$,1,11,61,31,21,41,52,Abstract_Concrete_6tasks_simseq_2seq_listtask_switchAB_fMRI,176009,45321,23415,4,39,159,B1,vest,2,4$,6119.6464337,6483.6589307,364.012497000001,0,0
1664,8*,1,12,61,32,22,42,52,Abstract_Concrete_6tasks_simseq_2seq_listtask_switchAB_fMRI,176009,45321,23415,4,40,160,A2,tools,6,8*,6119.6464337,6493.6583045,374.0118708,0,0
2532,8*,1,12,61,31,21,41,52,Abstract_Concrete_6tasks_simseq_2seq_listtask_switchAB_fMRI,176009,45321,23415,5,1,161,B5,tools,6,8*,6550.6567549,6558.6667358,8.0099809000003,0,0
1233,8*,1,12,62,32,22,42,52,Abstract_Concrete_6tasks_simseq_2seq_listtask_switchAB_fMRI,176009,45321,23415,5,2,162,A2,tools,6,8*,6550.6567549,6568.6673069,18.0105519999997,0,0
1912,9(,1,11,61,31,21,42,52,Abstract_Concrete_6tasks_simseq_2seq_listtask_switchAB_fMRI,176009,45321,23415,5,3,163,B2,glasses,3,9(,6550.6567549,6577.6692107,27.0124557999998,0,0
2737,9(,1,12,62,31,21,42,52,Abstract_Concrete_6tasks_simseq_2seq_listtask_switchAB_fMRI,176009,45321,23415,5,4,164,A3,glasses,3,9(,6550.6567549,6586.6674608,36.0107059000002,0,0
3213,7&,1,11,62,31,21,42,52,Abstract_Concrete_6tasks_simseq_2seq_listtask_switchAB_fMRI,176009,45321,23415,5,5,165,B4,helmet,1,7&,6550.6567549,6596.6693352,46.0125803000001,0,0
1146,8*,1,12,61,32,22,41,52,Abstract_Concrete_6tasks_simseq_2seq_listtask_switchAB_fMRI,176009,45321,23415,5,6,166,A2,tools,6,8*,6550.6567549,6607.6686746,57.0119196999995,0,0
1301,9(,1,12,62,31,21,41,52,Abstract_Concrete_6tasks_simseq_2seq_listtask_switchAB_fMRI,176009,45321,23415,5,7,167,B2,glasses,3,9(,6550.6567549,6616.6701239,66.0133690000002,0,0
1906,2@,1,11,62,32,22,41,51,Abstract_Concrete_6tasks_simseq_2seq_listtask_switchAB_fMRI,176009,45321,23415,5,8,168,A1,weapon,5,2@,6550.6567549,6625.668594,75.0118390999996,0,0
1490,2@,1,12,61,32,22,42,52,Abstract_Concrete_6tasks_simseq_2seq_listtask_switchAB_fMRI,176009,45321,23415,5,9,169,B3,weapon,5,2@,6550.6567549,6634.667791,84.0110360999997,0,0
2526,4$,1,12,61,31,21,42,52,Abstract_Concrete_6tasks_simseq_2seq_listtask_switchAB_fMRI,176009,45321,23415,5,10,170,A4,vest,2,4$,6550.6567549,6643.6678641,93.0111091999997,0,0
1692,8*,1,11,61,31,21,41,51,Abstract_Concrete_6tasks_simseq_2seq_listtask_switchAB_fMRI,176009,45321,23415,5,11,171,B5,tools,6,8*,6550.6567549,6653.6685392,103.0117843,0,0
1849,8*,1,11,62,32,21,42,52,Abstract_Concrete_6tasks_simseq_2seq_listtask_switchAB_fMRI,176009,45321,23415,5,12,172,A2,tools,6,8*,6550.6567549,6662.6683761,112.0116212,0,0
2106,8*,1,12,62,31,21,42,51,Abstract_Concrete_6tasks_simseq_2seq_listtask_switchAB_fMRI,176009,45321,23415,5,13,173,B5,tools,6,8*,6550.6567549,6671.6695283,121.0127734,0,0
1878,4$,1,12,62,31,22,42,51,Abstract_Concrete_6tasks_simseq_2seq_listtask_switchAB_fMRI,176009,45321,23415,5,14,174,A4,vest,2,4$,6550.6567549,6681.6682086,131.0114537,0,0
2018,2@,1,11,62,32,21,41,51,Abstract_Concrete_6tasks_simseq_2seq_listtask_switchAB_fMRI,176009,45321,23415,5,15,175,B3,weapon,5,2@,6550.6567549,6690.668003,140.0112481,0,0
1250,4$,1,11,62,32,22,42,52,Abstract_Concrete_6tasks_simseq_2seq_listtask_switchAB_fMRI,176009,45321,23415,5,16,176,A4,vest,2,4$,6550.6567549,6700.6675948,150.0108399,0,0
1358,2@,1,12,62,31,21,42,52,Abstract_Concrete_6tasks_simseq_2seq_listtask_switchAB_fMRI,176009,45321,23415,5,17,177,B3,weapon,5,2@,6550.6567549,6709.6676657,159.0109108,0,0
1070,2@,1,12,61,32,22,41,52,Abstract_Concrete_6tasks_simseq_2seq_listtask_switchAB_fMRI,176009,45321,23415,5,18,178,A1,weapon,5,2@,6550.6567549,6718.6707767,168.0140218,0,0
1846,8*,1,12,62,32,22,42,52,Abstract_Concrete_6tasks_simseq_2seq_listtask_switchAB_fMRI,176009,45321,23415,5,19,179,B5,tools,6,8*,6550.6567549,6727.6690831,177.0123282,0,0
1562,8*,1,11,61,31,22,42,52,Abstract_Concrete_6tasks_simseq_2seq_listtask_switchAB_fMRI,176009,45321,23415,5,20,180,A2,tools,6,8*,6550.6567549,6736.6690806,186.0123257,0,0
1171,4$,1,12,61,31,22,42,51,Abstract_Concrete_6tasks_simseq_2seq_listtask_switchAB_fMRI,176009,45321,23415,5,21,181,B1,vest,2,4$,6550.6567549,6745.6680746,195.0113197,0,0
2023,7&,1,11,62,32,21,41,51,Abstract_Concrete_6tasks_simseq_2seq_listtask_switchAB_fMRI,176009,45321,23415,5,22,182,A5,helmet,1,7&,6550.6567549,6754.6682989,204.011544,0,0
3682,7&,1,12,61,32,22,41,52,Abstract_Concrete_6tasks_simseq_2seq_listtask_switchAB_fMRI,176009,45321,23415,5,23,183,B4,helmet,1,7&,6550.6567549,6764.672701,214.0159461,0,0
2372,7&,1,11,62,32,22,41,51,Abstract_Concrete_6tasks_simseq_2seq_listtask_switchAB_fMRI,176009,45321,23415,5,24,184,A5,helmet,1,7&,6550.6567549,6775.6668858,225.0101309,0,0
1181,4$,1,12,62,31,22,42,52,Abstract_Concrete_6tasks_simseq_2seq_listtask_switchAB_fMRI,176009,45321,23415,5,25,185,B1,vest,2,4$,6550.6567549,6785.6683779,235.011623,0,0
1435,9(,1,12,61,32,22,42,52,Abstract_Concrete_6tasks_simseq_2seq_listtask_switchAB_fMRI,176009,45321,23415,5,26,186,A3,glasses,3,9(,6550.6567549,6794.6680275,244.0112726,0,0
1482,7&,1,12,61,32,21,42,52,Abstract_Concrete_6tasks_simseq_2seq_listtask_switchAB_fMRI,176009,45321,23415,5,27,187,B4,helmet,1,7&,6550.6567549,6803.6681607,253.0114058,0,0
1146,7&,1,11,62,32,21,41,52,Abstract_Concrete_6tasks_simseq_2seq_listtask_switchAB_fMRI,176009,45321,23415,5,28,188,A5,helmet,1,7&,6550.6567549,6812.6692976,262.0125427,0,0
1908,2@,1,11,62,32,22,41,51,Abstract_Concrete_6tasks_simseq_2seq_listtask_switchAB_fMRI,176009,45321,23415,5,29,189,B3,weapon,5,2@,6550.6567549,6821.6688007,271.0120458,0,0
2083,9(,1,11,61,31,22,42,51,Abstract_Concrete_6tasks_simseq_2seq_listtask_switchAB_fMRI,176009,45321,23415,5,30,190,A3,glasses,3,9(,6550.6567549,6830.6681055,280.0113506,0,0
1102,9(,1,12,62,32,22,41,52,Abstract_Concrete_6tasks_simseq_2seq_listtask_switchAB_fMRI,176009,45321,23415,5,31,191,B2,glasses,3,9(,6550.6567549,6840.6684198,290.0116649,0,0
1334,2@,1,11,62,32,22,42,52,Abstract_Concrete_6tasks_simseq_2seq_listtask_switchAB_fMRI,176009,45321,23415,5,32,192,A1,weapon,5,2@,6550.6567549,6849.670183,299.0134281,0,0
1290,4$,1,11,61,31,22,41,52,Abstract_Concrete_6tasks_simseq_2seq_listtask_switchAB_fMRI,176009,45321,23415,5,33,193,B1,vest,2,4$,6550.6567549,6858.6674462,308.0106913,0,0
1814,4$,1,12,62,31,22,41,52,Abstract_Concrete_6tasks_simseq_2seq_listtask_switchAB_fMRI,176009,45321,23415,5,34,194,A4,vest,2,4$,6550.6567549,6867.6685843,317.011829399999,0,0
4008,7&,1,11,61,31,22,41,52,Abstract_Concrete_6tasks_simseq_2seq_listtask_switchAB_fMRI,176009,45321,23415,5,35,195,B4,helmet,1,7&,6550.6567549,6876.6695363,326.0127814,0,0
1315,2@,1,11,61,31,22,41,52,Abstract_Concrete_6tasks_simseq_2seq_listtask_switchAB_fMRI,176009,45321,23415,5,36,196,A1,weapon,5,2@,6550.6567549,6888.6678208,338.0110659,0,0
1046,9(,1,12,61,32,22,41,51,Abstract_Concrete_6tasks_simseq_2seq_listtask_switchAB_fMRI,176009,45321,23415,5,37,197,B2,glasses,3,9(,6550.6567549,6897.6692035,347.0124486,0,0
2073,7&,1,12,61,32,22,41,51,Abstract_Concrete_6tasks_simseq_2seq_listtask_switchAB_fMRI,176009,45321,23415,5,38,198,A5,helmet,1,7&,6550.6567549,6906.6685053,356.0117504,0,0
1642,4$,1,11,62,31,22,41,51,Abstract_Concrete_6tasks_simseq_2seq_listtask_switchAB_fMRI,176009,45321,23415,5,39,199,B1,vest,2,4$,6550.6567549,6916.6693548,366.0125999,0,0
1651,9(,1,12,61,31,21,41,51,Abstract_Concrete_6tasks_simseq_2seq_listtask_switchAB_fMRI,176009,45321,23415,5,40,200,A3,glasses,3,9(,6550.6567549,6925.6683243,375.0115694,0,0
1817,2@,1,12,62,31,22,41,52,Abstract_Concrete_6tasks_simseq_2seq_listtask_switchAB_fMRI,176009,45321,23415,6,1,201,B3,weapon,5,2@,6977.7332889,6985.7428565,8.00956760000008,0,0
1485,2@,1,11,61,32,21,41,51,Abstract_Concrete_6tasks_simseq_2seq_listtask_switchAB_fMRI,176009,45321,23415,6,2,202,A1,weapon,5,2@,6977.7332889,6994.7444619,17.0111729999999,0,0
1937,7&,1,12,62,32,21,41,52,Abstract_Concrete_6tasks_simseq_2seq_listtask_switchAB_fMRI,176009,45321,23415,6,3,203,B4,helmet,1,7&,6977.7332889,7003.7454902,26.0122013,0,0
1169,2@,1,12,61,31,21,41,52,Abstract_Concrete_6tasks_simseq_2seq_listtask_switchAB_fMRI,176009,45321,23415,6,4,204,A1,weapon,5,2@,6977.7332889,7012.7447606,35.0114716999997,0,0
1253,8*,1,11,61,31,22,42,51,Abstract_Concrete_6tasks_simseq_2seq_listtask_switchAB_fMRI,176009,45321,23415,6,5,205,B5,tools,6,8*,6977.7332889,7021.7465754,44.0132865000005,0,0
1485,4$,1,11,62,32,22,42,51,Abstract_Concrete_6tasks_simseq_2seq_listtask_switchAB_fMRI,176009,45321,23415,6,6,206,A4,vest,2,4$,6977.7332889,7030.7468881,53.0135992000005,0,0
1437,9(,1,12,61,31,21,42,51,Abstract_Concrete_6tasks_simseq_2seq_listtask_switchAB_fMRI,176009,45321,23415,6,7,207,B2,glasses,3,9(,6977.7332889,7039.7457488,62.0124599000001,0,0
1635,7&,1,12,62,31,21,41,51,Abstract_Concrete_6tasks_simseq_2seq_listtask_switchAB_fMRI,176009,45321,23415,6,8,208,A5,helmet,1,7&,6977.7332889,7048.7450178,71.0117289,0,0
1828,2@,1,11,61,31,21,42,51,Abstract_Concrete_6tasks_simseq_2seq_listtask_switchAB_fMRI,176009,45321,23415,6,9,209,B3,weapon,5,2@,6977.7332889,7057.745831,80.0125421000002,0,0
2159,2@,1,12,62,31,22,41,51,Abstract_Concrete_6tasks_simseq_2seq_listtask_switchAB_fMRI,176009,45321,23415,6,10,210,A1,weapon,5,2@,6977.7332889,7066.7440439,89.0107550000002,0,0
2496,7&,1,11,62,31,22,41,52,Abstract_Concrete_6tasks_simseq_2seq_listtask_switchAB_fMRI,176009,45321,23415,6,11,211,B4,helmet,1,7&,6977.7332889,7076.7453913,99.0121024,0,0
2241,7&,1,11,62,32,22,41,51,Abstract_Concrete_6tasks_simseq_2seq_listtask_switchAB_fMRI,176009,45321,23415,6,12,212,A5,helmet,1,7&,6977.7332889,7086.7452363,109.0119474,0,0
1241,9(,1,11,61,32,21,41,52,Abstract_Concrete_6tasks_simseq_2seq_listtask_switchAB_fMRI,176009,45321,23415,6,13,213,B2,glasses,3,9(,6977.7332889,7096.7449688,119.0116799,0,0
1710,4$,1,11,62,31,21,42,51,Abstract_Concrete_6tasks_simseq_2seq_listtask_switchAB_fMRI,176009,45321,23415,6,14,214,A4,vest,2,4$,6977.7332889,7105.746962,128.0136731,0,0
3543,7&,1,12,62,31,22,41,51,Abstract_Concrete_6tasks_simseq_2seq_listtask_switchAB_fMRI,176009,45321,23415,6,15,215,B4,helmet,1,7&,6977.7332889,7114.7468712,137.0135823,0,0
1393,9(,1,11,62,32,22,42,51,Abstract_Concrete_6tasks_simseq_2seq_listtask_switchAB_fMRI,176009,45321,23415,6,16,216,A3,glasses,3,9(,6977.7332889,7125.7456248,148.0123359,0,0
1703,8*,1,11,62,32,21,41,51,Abstract_Concrete_6tasks_simseq_2seq_listtask_switchAB_fMRI,176009,45321,23415,6,17,217,B5,tools,6,8*,6977.7332889,7134.7471295,157.0138406,0,0
1268,4$,0,11,61,32,21,41,52,Abstract_Concrete_6tasks_simseq_2seq_listtask_switchAB_fMRI,176009,45321,23415,6,18,218,A3,glasses,3,9(,6977.7332889,7143.7440403,166.0107514,7145.0266425,167.2933536
1507,9(,1,11,62,32,21,41,51,Abstract_Concrete_6tasks_simseq_2seq_listtask_switchAB_fMRI,176009,45321,23415,6,19,219,B2,glasses,3,9(,6977.7332889,7152.7447505,175.0114616,0,0
1479,2@,1,11,62,32,22,42,51,Abstract_Concrete_6tasks_simseq_2seq_listtask_switchAB_fMRI,176009,45321,23415,6,20,220,A1,weapon,5,2@,6977.7332889,7161.7444363,184.0111474,0,0
1409,4$,1,12,62,31,22,41,51,Abstract_Concrete_6tasks_simseq_2seq_listtask_switchAB_fMRI,176009,45321,23415,6,21,221,B1,vest,2,4$,6977.7332889,7170.7454727,193.0121838,0,0
1712,8*,1,12,62,32,21,42,51,Abstract_Concrete_6tasks_simseq_2seq_listtask_switchAB_fMRI,176009,45321,23415,6,22,222,A2,tools,6,8*,6977.7332889,7179.7457824,202.0124935,0,0
2029,2@,1,12,61,31,21,42,51,Abstract_Concrete_6tasks_simseq_2seq_listtask_switchAB_fMRI,176009,45321,23415,6,23,223,B3,weapon,5,2@,6977.7332889,7188.7443722,211.0110833,0,0
1537,9(,1,12,61,31,21,42,51,Abstract_Concrete_6tasks_simseq_2seq_listtask_switchAB_fMRI,176009,45321,23415,6,24,224,A3,glasses,3,9(,6977.7332889,7198.7452138,221.0119249,0,0
1370,9(,1,11,61,32,22,42,52,Abstract_Concrete_6tasks_simseq_2seq_listtask_switchAB_fMRI,176009,45321,23415,6,25,225,B2,glasses,3,9(,6977.7332889,7207.7446338,230.0113449,0,0
2657,9(,1,11,61,32,22,42,51,Abstract_Concrete_6tasks_simseq_2seq_listtask_switchAB_fMRI,176009,45321,23415,6,26,226,A3,glasses,3,9(,6977.7332889,7216.7460923,239.0128034,0,0
2495,4$,1,12,61,31,22,42,52,Abstract_Concrete_6tasks_simseq_2seq_listtask_switchAB_fMRI,176009,45321,23415,6,27,227,B1,vest,2,4$,6977.7332889,7226.744408,249.0111191,0,0
1963,8*,1,11,62,32,21,42,52,Abstract_Concrete_6tasks_simseq_2seq_listtask_switchAB_fMRI,176009,45321,23415,6,28,228,A2,tools,6,8*,6977.7332889,7236.743958,259.0106691,0,0
1793,8*,1,11,62,31,22,42,51,Abstract_Concrete_6tasks_simseq_2seq_listtask_switchAB_fMRI,176009,45321,23415,6,29,229,B5,tools,6,8*,6977.7332889,7245.7447379,268.011449,0,0
1473,4$,1,12,62,32,21,42,51,Abstract_Concrete_6tasks_simseq_2seq_listtask_switchAB_fMRI,176009,45321,23415,6,30,230,A4,vest,2,4$,6977.7332889,7254.7443477,277.0110588,0,0
1578,2@,1,11,62,31,21,41,51,Abstract_Concrete_6tasks_simseq_2seq_listtask_switchAB_fMRI,176009,45321,23415,6,31,231,B3,weapon,5,2@,6977.7332889,7263.7434635,286.0101746,0,0
1660,7&,1,12,61,32,22,41,52,Abstract_Concrete_6tasks_simseq_2seq_listtask_switchAB_fMRI,176009,45321,23415,6,32,232,A5,helmet,1,7&,6977.7332889,7272.7448468,295.0115579,0,0
1821,7&,1,12,61,31,21,42,51,Abstract_Concrete_6tasks_simseq_2seq_listtask_switchAB_fMRI,176009,45321,23415,6,33,233,B4,helmet,1,7&,6977.7332889,7281.7434653,304.0101764,0,0
1744,7&,1,12,62,31,22,42,52,Abstract_Concrete_6tasks_simseq_2seq_listtask_switchAB_fMRI,176009,45321,23415,6,34,234,A5,helmet,1,7&,6977.7332889,7290.7427432,313.0094543,0,0
1171,4$,1,11,61,32,21,41,51,Abstract_Concrete_6tasks_simseq_2seq_listtask_switchAB_fMRI,176009,45321,23415,6,35,235,B1,vest,2,4$,6977.7332889,7299.7426607,322.0093718,0,0
1985,8*,1,11,62,31,22,41,52,Abstract_Concrete_6tasks_simseq_2seq_listtask_switchAB_fMRI,176009,45321,23415,6,36,236,A2,tools,6,8*,6977.7332889,7308.7446508,331.0113619,0,0
1294,4$,1,11,61,31,22,42,51,Abstract_Concrete_6tasks_simseq_2seq_listtask_switchAB_fMRI,176009,45321,23415,6,37,237,B1,vest,2,4$,6977.7332889,7317.7431819,340.009893,0,0
1937,4$,1,11,62,31,22,42,51,Abstract_Concrete_6tasks_simseq_2seq_listtask_switchAB_fMRI,176009,45321,23415,6,38,238,A4,vest,2,4$,6977.7332889,7326.746285,349.0129961,0,0
1613,8*,1,11,62,32,21,42,51,Abstract_Concrete_6tasks_simseq_2seq_listtask_switchAB_fMRI,176009,45321,23415,6,39,239,B5,tools,6,8*,6977.7332889,7335.7447968,358.0115079,0,0
2443,8*,1,12,62,31,22,41,51,Abstract_Concrete_6tasks_simseq_2seq_listtask_switchAB_fMRI,176009,45321,23415,6,40,240,A2,tools,6,8*,6977.7332889,7344.743552,367.0102631,0,0
