rt1,resp1,correct1,features_1,features_2,features_3,features_4,features_5,features_6,ExpName,subNo,seqA,seqB,block,trial,trialnum,cuetype,task,subtaskcode,corr_resp1,onsetTime_s,onsetTime_cue,onset_cue,onsetTime_cue_fb,onset_cue_fb
1784,8*,1,42,32,12,51,62,21,Abstract_Concrete_6tasks_simseq_2seq_listtask_switchAB_fMRI,186201,12534,35142,1,1,1,B1,glasses,3,8*,3533.7768696,3541.7906796,8.01381000000038,0,0
6548,4$,1,41,31,11,51,62,22,Abstract_Concrete_6tasks_simseq_2seq_listtask_switchAB_fMRI,186201,12534,35142,1,2,2,A5,weapon,5,4$,3533.7768696,3550.7873815,17.0105119,0,0
2670,2@,1,42,31,12,52,62,21,Abstract_Concrete_6tasks_simseq_2seq_listtask_switchAB_fMRI,186201,12534,35142,1,3,3,B5,vest,2,2@,3533.7768696,3564.791006,31.0141364000001,0,0
2205,2@,1,41,32,12,52,61,22,Abstract_Concrete_6tasks_simseq_2seq_listtask_switchAB_fMRI,186201,12534,35142,1,4,4,A2,vest,2,2@,3533.7768696,3574.7875052,41.0106356000001,0,0
2228,4$,1,41,32,12,52,61,21,Abstract_Concrete_6tasks_simseq_2seq_listtask_switchAB_fMRI,186201,12534,35142,1,5,5,B4,weapon,5,4$,3533.7768696,3584.7909877,51.0141181000004,0,0
2007,9(,1,42,31,11,52,61,21,Abstract_Concrete_6tasks_simseq_2seq_listtask_switchAB_fMRI,186201,12534,35142,1,6,6,A1,helmet,1,9(,3533.7768696,3594.7887122,61.0118426000004,0,0
1725,2@,1,41,32,11,51,62,22,Abstract_Concrete_6tasks_simseq_2seq_listtask_switchAB_fMRI,186201,12534,35142,1,7,7,B5,vest,2,2@,3533.7768696,3604.7886464,71.0117768,0,0
3121,3#,1,42,32,12,51,62,22,Abstract_Concrete_6tasks_simseq_2seq_listtask_switchAB_fMRI,186201,12534,35142,1,8,8,A3,tools,6,3#,3533.7768696,3613.7886535,80.0117839,0,0
1364,8*,1,41,31,12,52,61,22,Abstract_Concrete_6tasks_simseq_2seq_listtask_switchAB_fMRI,186201,12534,35142,1,9,9,B1,glasses,3,8*,3533.7768696,3624.7897529,91.0128833000003,0,0
2565,8*,1,42,31,11,52,62,21,Abstract_Concrete_6tasks_simseq_2seq_listtask_switchAB_fMRI,186201,12534,35142,1,10,10,A4,glasses,3,8*,3533.7768696,3633.7895509,100.0126813,0,0
3240,9(,1,42,32,11,51,61,21,Abstract_Concrete_6tasks_simseq_2seq_listtask_switchAB_fMRI,186201,12534,35142,1,11,11,B3,helmet,1,9(,3533.7768696,3643.7888936,110.012024,0,0
1471,4$,1,42,32,12,52,62,21,Abstract_Concrete_6tasks_simseq_2seq_listtask_switchAB_fMRI,186201,12534,35142,1,12,12,A5,weapon,5,4$,3533.7768696,3654.7892738,121.0124042,0,0
3014,9(,1,42,32,11,52,62,22,Abstract_Concrete_6tasks_simseq_2seq_listtask_switchAB_fMRI,186201,12534,35142,1,13,13,B3,helmet,1,9(,3533.7768696,3663.7880297,130.0111601,0,0
1635,4$,1,41,32,12,51,61,22,Abstract_Concrete_6tasks_simseq_2seq_listtask_switchAB_fMRI,186201,12534,35142,1,14,14,A5,weapon,5,4$,3533.7768696,3674.7886788,141.0118092,0,0
2255,4$,1,41,31,11,51,62,21,Abstract_Concrete_6tasks_simseq_2seq_listtask_switchAB_fMRI,186201,12534,35142,1,15,15,B4,weapon,5,4$,3533.7768696,3683.7893113,150.0124417,0,0
2984,3#,1,42,32,11,52,61,21,Abstract_Concrete_6tasks_simseq_2seq_listtask_switchAB_fMRI,186201,12534,35142,1,16,16,A3,tools,6,3#,3533.7768696,3693.7887233,160.0118537,0,0
2304,4$,1,42,31,11,51,61,22,Abstract_Concrete_6tasks_simseq_2seq_listtask_switchAB_fMRI,186201,12534,35142,1,17,17,B4,weapon,5,4$,3533.7768696,3703.7880057,170.0111361,0,0
2038,2@,1,42,31,11,52,62,21,Abstract_Concrete_6tasks_simseq_2seq_listtask_switchAB_fMRI,186201,12534,35142,1,18,18,A2,vest,2,2@,3533.7768696,3713.788533,180.0116634,0,0
1539,8*,1,41,32,11,52,62,22,Abstract_Concrete_6tasks_simseq_2seq_listtask_switchAB_fMRI,186201,12534,35142,1,19,19,B1,glasses,3,8*,3533.7768696,3723.7908745,190.0140049,0,0
4870,8*,1,41,31,11,52,61,21,Abstract_Concrete_6tasks_simseq_2seq_listtask_switchAB_fMRI,186201,12534,35142,1,20,20,A4,glasses,3,8*,3533.7768696,3732.7903818,199.0135122,0,0
2165,2@,1,42,31,11,51,62,22,Abstract_Concrete_6tasks_simseq_2seq_listtask_switchAB_fMRI,186201,12534,35142,1,21,21,B5,vest,2,2@,3533.7768696,3744.7878518,211.0109822,0,0
2769,3#,1,42,32,11,51,61,22,Abstract_Concrete_6tasks_simseq_2seq_listtask_switchAB_fMRI,186201,12534,35142,1,22,22,A3,tools,6,3#,3533.7768696,3754.7887005,221.0118309,0,0
1970,3#,1,41,32,12,51,61,21,Abstract_Concrete_6tasks_simseq_2seq_listtask_switchAB_fMRI,186201,12534,35142,1,23,23,B2,tools,6,3#,3533.7768696,3764.7874155,231.0105459,0,0
3066,4$,1,41,31,11,51,62,22,Abstract_Concrete_6tasks_simseq_2seq_listtask_switchAB_fMRI,186201,12534,35142,1,24,24,A5,weapon,5,4$,3533.7768696,3773.7873868,240.0105172,0,0
4673,4$,1,42,32,12,52,62,22,Abstract_Concrete_6tasks_simseq_2seq_listtask_switchAB_fMRI,186201,12534,35142,1,25,25,B4,weapon,5,4$,3533.7768696,3784.7889434,251.0120738,0,0
1836,9(,1,41,31,11,51,62,21,Abstract_Concrete_6tasks_simseq_2seq_listtask_switchAB_fMRI,186201,12534,35142,1,26,26,A1,helmet,1,9(,3533.7768696,3796.7900414,263.0131718,0,0
2267,3#,1,41,32,11,51,62,22,Abstract_Concrete_6tasks_simseq_2seq_listtask_switchAB_fMRI,186201,12534,35142,1,27,27,B2,tools,6,3#,3533.7768696,3805.7873503,272.0104807,0,0
2260,9(,1,42,32,12,52,62,22,Abstract_Concrete_6tasks_simseq_2seq_listtask_switchAB_fMRI,186201,12534,35142,1,28,28,A1,helmet,1,9(,3533.7768696,3815.7881554,282.0112858,0,0
1909,3#,1,42,32,12,51,61,21,Abstract_Concrete_6tasks_simseq_2seq_listtask_switchAB_fMRI,186201,12534,35142,1,29,29,B2,tools,6,3#,3533.7768696,3825.7881448,292.0112752,0,0
2616,9(,1,41,32,11,51,61,22,Abstract_Concrete_6tasks_simseq_2seq_listtask_switchAB_fMRI,186201,12534,35142,1,30,30,A1,helmet,1,9(,3533.7768696,3834.7881507,301.0112811,0,0
1922,9(,1,42,32,12,52,62,22,Abstract_Concrete_6tasks_simseq_2seq_listtask_switchAB_fMRI,186201,12534,35142,1,31,31,B3,helmet,1,9(,3533.7768696,3844.7902808,311.0134112,0,0
5100,8*,1,42,31,12,51,61,21,Abstract_Concrete_6tasks_simseq_2seq_listtask_switchAB_fMRI,186201,12534,35142,1,32,32,A4,glasses,3,8*,3533.7768696,3853.7893525,320.0124829,0,0
1719,9(,1,42,31,11,51,62,21,Abstract_Concrete_6tasks_simseq_2seq_listtask_switchAB_fMRI,186201,12534,35142,1,33,33,B3,helmet,1,9(,3533.7768696,3866.7904834,333.0136138,0,0
1924,3#,1,42,32,11,52,61,22,Abstract_Concrete_6tasks_simseq_2seq_listtask_switchAB_fMRI,186201,12534,35142,1,34,34,A3,tools,6,3#,3533.7768696,3875.7885549,342.0116853,0,0
1738,8*,1,42,31,11,51,62,21,Abstract_Concrete_6tasks_simseq_2seq_listtask_switchAB_fMRI,186201,12534,35142,1,35,35,B1,glasses,3,8*,3533.7768696,3884.7880917,351.0112221,0,0
2679,2@,1,42,31,11,52,61,21,Abstract_Concrete_6tasks_simseq_2seq_listtask_switchAB_fMRI,186201,12534,35142,1,36,36,A2,vest,2,2@,3533.7768696,3893.7883522,360.0114826,0,0
2184,2@,1,42,32,12,52,62,22,Abstract_Concrete_6tasks_simseq_2seq_listtask_switchAB_fMRI,186201,12534,35142,1,37,37,B5,vest,2,2@,3533.7768696,3903.7885275,370.0116579,0,0
1646,2@,1,42,31,11,51,62,21,Abstract_Concrete_6tasks_simseq_2seq_listtask_switchAB_fMRI,186201,12534,35142,1,38,38,A2,vest,2,2@,3533.7768696,3913.7925584,380.0156888,0,0
1601,3#,1,42,32,11,52,62,21,Abstract_Concrete_6tasks_simseq_2seq_listtask_switchAB_fMRI,186201,12534,35142,1,39,39,B2,tools,6,3#,3533.7768696,3922.7901926,389.013323,0,0
4704,8*,1,41,31,11,52,62,22,Abstract_Concrete_6tasks_simseq_2seq_listtask_switchAB_fMRI,186201,12534,35142,1,40,40,A4,glasses,3,8*,3533.7768696,3931.789567,398.0126974,0,0
2157,4$,1,42,32,11,52,61,22,Abstract_Concrete_6tasks_simseq_2seq_listtask_switchAB_fMRI,186201,12534,35142,2,1,41,B4,weapon,5,4$,4062.260943,4070.2711213,8.01017829999955,0,0
1575,9(,1,42,31,11,52,61,21,Abstract_Concrete_6tasks_simseq_2seq_listtask_switchAB_fMRI,186201,12534,35142,2,2,42,A1,helmet,1,9(,4062.260943,4080.2737647,18.0128216999997,0,0
1479,8*,1,41,32,11,51,62,22,Abstract_Concrete_6tasks_simseq_2seq_listtask_switchAB_fMRI,186201,12534,35142,2,3,43,B1,glasses,3,8*,4062.260943,4089.273239,27.0122959999999,0,0
1379,9(,1,41,31,11,52,62,21,Abstract_Concrete_6tasks_simseq_2seq_listtask_switchAB_fMRI,186201,12534,35142,2,4,44,A1,helmet,1,9(,4062.260943,4098.2740453,36.0131022999994,0,0
1536,4$,1,42,32,12,51,61,22,Abstract_Concrete_6tasks_simseq_2seq_listtask_switchAB_fMRI,186201,12534,35142,2,5,45,B4,weapon,5,4$,4062.260943,4107.2747205,45.0137774999994,0,0
1629,2@,1,42,31,11,51,62,21,Abstract_Concrete_6tasks_simseq_2seq_listtask_switchAB_fMRI,186201,12534,35142,2,6,46,A2,vest,2,2@,4062.260943,4116.2737492,54.0128061999994,0,0
3271,9(,1,41,32,12,52,62,22,Abstract_Concrete_6tasks_simseq_2seq_listtask_switchAB_fMRI,186201,12534,35142,2,7,47,B3,helmet,1,9(,4062.260943,4125.272965,63.0120219999999,0,0
1261,2@,1,41,31,11,52,61,22,Abstract_Concrete_6tasks_simseq_2seq_listtask_switchAB_fMRI,186201,12534,35142,2,8,48,A2,vest,2,2@,4062.260943,4136.2733138,74.0123708000001,0,0
4004,9(,1,41,32,11,51,62,22,Abstract_Concrete_6tasks_simseq_2seq_listtask_switchAB_fMRI,186201,12534,35142,2,9,49,B3,helmet,1,9(,4062.260943,4145.2730347,83.0120916999995,0,0
1214,2@,1,42,31,11,52,61,22,Abstract_Concrete_6tasks_simseq_2seq_listtask_switchAB_fMRI,186201,12534,35142,2,10,50,A2,vest,2,2@,4062.260943,4157.2734563,95.0125133000001,0,0
1603,2@,1,41,32,11,52,62,22,Abstract_Concrete_6tasks_simseq_2seq_listtask_switchAB_fMRI,186201,12534,35142,2,11,51,B5,vest,2,2@,4062.260943,4166.2751605,104.0142175,0,0
1557,7&,0,41,31,11,52,61,21,Abstract_Concrete_6tasks_simseq_2seq_listtask_switchAB_fMRI,186201,12534,35142,2,12,52,A1,helmet,1,9(,4062.260943,4175.2736129,113.0126699,4176.8472712,114.5863282
2012,8*,1,42,31,11,52,61,22,Abstract_Concrete_6tasks_simseq_2seq_listtask_switchAB_fMRI,186201,12534,35142,2,13,53,B1,glasses,3,8*,4062.260943,4184.2724016,122.0114586,0,0
2297,9(,1,42,31,12,52,61,21,Abstract_Concrete_6tasks_simseq_2seq_listtask_switchAB_fMRI,186201,12534,35142,2,14,54,A1,helmet,1,9(,4062.260943,4194.2737016,132.0127586,0,0
1446,3#,1,42,32,12,51,62,22,Abstract_Concrete_6tasks_simseq_2seq_listtask_switchAB_fMRI,186201,12534,35142,2,15,55,B2,tools,6,3#,4062.260943,4204.2751124,142.014169399999,0,0
4575,3#,1,41,32,12,51,62,22,Abstract_Concrete_6tasks_simseq_2seq_listtask_switchAB_fMRI,186201,12534,35142,2,16,56,A3,tools,6,3#,4062.260943,4213.2732411,151.012298099999,0,0
1660,8*,1,42,32,11,52,62,22,Abstract_Concrete_6tasks_simseq_2seq_listtask_switchAB_fMRI,186201,12534,35142,2,17,57,B1,glasses,3,8*,4062.260943,4225.2734755,163.0125325,0,0
1599,4$,1,41,32,11,51,61,21,Abstract_Concrete_6tasks_simseq_2seq_listtask_switchAB_fMRI,186201,12534,35142,2,18,58,A5,weapon,5,4$,4062.260943,4234.2718029,172.0108599,0,0
1733,4$,1,42,31,12,51,61,22,Abstract_Concrete_6tasks_simseq_2seq_listtask_switchAB_fMRI,186201,12534,35142,2,19,59,B4,weapon,5,4$,4062.260943,4243.2729731,181.0120301,0,0
2436,4$,1,42,31,11,51,62,21,Abstract_Concrete_6tasks_simseq_2seq_listtask_switchAB_fMRI,186201,12534,35142,2,20,60,A5,weapon,5,4$,4062.260943,4252.2734913,190.0125483,0,0
1458,4$,1,42,31,11,52,62,22,Abstract_Concrete_6tasks_simseq_2seq_listtask_switchAB_fMRI,186201,12534,35142,2,21,61,B4,weapon,5,4$,4062.260943,4262.272115,200.011172,0,0
1665,3#,1,41,31,11,52,61,21,Abstract_Concrete_6tasks_simseq_2seq_listtask_switchAB_fMRI,186201,12534,35142,2,22,62,A3,tools,6,3#,4062.260943,4271.2746068,209.013663799999,0,0
1299,8*,1,41,32,12,52,62,21,Abstract_Concrete_6tasks_simseq_2seq_listtask_switchAB_fMRI,186201,12534,35142,2,23,63,B1,glasses,3,8*,4062.260943,4280.2721453,218.0112023,0,0
1413,4$,1,42,32,11,52,62,22,Abstract_Concrete_6tasks_simseq_2seq_listtask_switchAB_fMRI,186201,12534,35142,2,24,64,A5,weapon,5,4$,4062.260943,4289.27229,227.011347,0,0
2615,9(,1,41,31,12,51,61,22,Abstract_Concrete_6tasks_simseq_2seq_listtask_switchAB_fMRI,186201,12534,35142,2,25,65,B3,helmet,1,9(,4062.260943,4298.2719647,236.0110217,0,0
4153,3#,1,42,32,12,52,62,21,Abstract_Concrete_6tasks_simseq_2seq_listtask_switchAB_fMRI,186201,12534,35142,2,26,66,A3,tools,6,3#,4062.260943,4308.2728741,246.0119311,0,0
2157,3#,1,42,32,12,52,61,22,Abstract_Concrete_6tasks_simseq_2seq_listtask_switchAB_fMRI,186201,12534,35142,2,27,67,B2,tools,6,3#,4062.260943,4320.274737,258.013794,0,0
2227,8*,1,42,31,11,51,62,22,Abstract_Concrete_6tasks_simseq_2seq_listtask_switchAB_fMRI,186201,12534,35142,2,28,68,A4,glasses,3,8*,4062.260943,4330.2733909,268.0124479,0,0
1528,2@,1,42,32,12,52,62,22,Abstract_Concrete_6tasks_simseq_2seq_listtask_switchAB_fMRI,186201,12534,35142,2,29,69,B5,vest,2,2@,4062.260943,4340.2721311,278.011188099999,0,0
2486,8*,1,41,31,11,51,61,21,Abstract_Concrete_6tasks_simseq_2seq_listtask_switchAB_fMRI,186201,12534,35142,2,30,70,A4,glasses,3,8*,4062.260943,4349.2719474,287.011004399999,0,0
1414,3#,1,42,32,12,52,62,21,Abstract_Concrete_6tasks_simseq_2seq_listtask_switchAB_fMRI,186201,12534,35142,2,31,71,B2,tools,6,3#,4062.260943,4359.2739704,297.013027399999,0,0
1348,2@,1,42,31,11,51,62,21,Abstract_Concrete_6tasks_simseq_2seq_listtask_switchAB_fMRI,186201,12534,35142,2,32,72,A2,vest,2,2@,4062.260943,4368.2738251,306.0128821,0,0
1400,2@,1,41,31,12,52,61,22,Abstract_Concrete_6tasks_simseq_2seq_listtask_switchAB_fMRI,186201,12534,35142,2,33,73,B5,vest,2,2@,4062.260943,4377.2731802,315.0122372,0,0
1423,4$,1,42,31,11,52,61,22,Abstract_Concrete_6tasks_simseq_2seq_listtask_switchAB_fMRI,186201,12534,35142,2,34,74,A5,weapon,5,4$,4062.260943,4386.2727796,324.0118366,0,0
1617,2@,1,41,32,12,52,61,21,Abstract_Concrete_6tasks_simseq_2seq_listtask_switchAB_fMRI,186201,12534,35142,2,35,75,B5,vest,2,2@,4062.260943,4395.2735975,333.012654499999,0,0
2146,8*,1,42,32,11,51,61,22,Abstract_Concrete_6tasks_simseq_2seq_listtask_switchAB_fMRI,186201,12534,35142,2,36,76,A4,glasses,3,8*,4062.260943,4404.2728256,342.0118826,0,0
1568,3#,1,42,32,12,51,61,22,Abstract_Concrete_6tasks_simseq_2seq_listtask_switchAB_fMRI,186201,12534,35142,2,37,77,B2,tools,6,3#,4062.260943,4414.2728474,352.011904399999,0,0
2027,3#,1,41,32,12,52,62,22,Abstract_Concrete_6tasks_simseq_2seq_listtask_switchAB_fMRI,186201,12534,35142,2,38,78,A3,tools,6,3#,4062.260943,4423.272761,361.011818,0,0
1880,9(,1,41,31,11,52,61,22,Abstract_Concrete_6tasks_simseq_2seq_listtask_switchAB_fMRI,186201,12534,35142,2,39,79,B3,helmet,1,9(,4062.260943,4433.2742782,371.013335199999,0,0
1859,4$,0,42,31,11,52,61,22,Abstract_Concrete_6tasks_simseq_2seq_listtask_switchAB_fMRI,186201,12534,35142,2,40,80,A4,glasses,3,8*,4062.260943,4442.2725205,380.011577499999,4444.146559,381.885616
2232,8*,1,41,31,11,51,61,22,Abstract_Concrete_6tasks_simseq_2seq_listtask_switchAB_fMRI,186201,12534,35142,3,1,81,B1,glasses,3,8*,4541.6810846,4549.6919938,8.01090920000024,0,0
2039,9(,1,42,32,11,52,61,21,Abstract_Concrete_6tasks_simseq_2seq_listtask_switchAB_fMRI,186201,12534,35142,3,2,82,A1,helmet,1,9(,4541.6810846,4559.6922993,18.0112147,0,0
2314,9(,1,41,32,12,52,61,22,Abstract_Concrete_6tasks_simseq_2seq_listtask_switchAB_fMRI,186201,12534,35142,3,3,83,B3,helmet,1,9(,4541.6810846,4569.6943405,28.0132559000003,0,0
1603,4$,1,41,32,11,51,62,22,Abstract_Concrete_6tasks_simseq_2seq_listtask_switchAB_fMRI,186201,12534,35142,3,4,84,A5,weapon,5,4$,4541.6810846,4579.6937357,38.0126510999999,0,0
1505,2@,1,42,31,12,52,62,22,Abstract_Concrete_6tasks_simseq_2seq_listtask_switchAB_fMRI,186201,12534,35142,3,5,85,B5,vest,2,2@,4541.6810846,4588.693596,47.0125114000002,0,0
1791,2@,1,42,31,12,52,61,22,Abstract_Concrete_6tasks_simseq_2seq_listtask_switchAB_fMRI,186201,12534,35142,3,6,86,A2,vest,2,2@,4541.6810846,4597.6935776,56.0124930000002,0,0
1227,8*,1,42,32,11,51,61,22,Abstract_Concrete_6tasks_simseq_2seq_listtask_switchAB_fMRI,186201,12534,35142,3,7,87,B1,glasses,3,8*,4541.6810846,4606.6919029,65.0108183000002,0,0
2014,4$,1,41,32,11,51,62,21,Abstract_Concrete_6tasks_simseq_2seq_listtask_switchAB_fMRI,186201,12534,35142,3,8,88,A5,weapon,5,4$,4541.6810846,4615.6926705,74.0115858999998,0,0
1829,9(,1,41,31,12,52,62,22,Abstract_Concrete_6tasks_simseq_2seq_listtask_switchAB_fMRI,186201,12534,35142,3,9,89,B3,helmet,1,9(,4541.6810846,4625.6929223,84.0118376999999,0,0
2926,8*,1,41,32,12,52,61,22,Abstract_Concrete_6tasks_simseq_2seq_listtask_switchAB_fMRI,186201,12534,35142,3,10,90,A4,glasses,3,8*,4541.6810846,4634.6942102,93.0131256000004,0,0
1421,2@,1,41,32,12,51,61,22,Abstract_Concrete_6tasks_simseq_2seq_listtask_switchAB_fMRI,186201,12534,35142,3,11,91,B5,vest,2,2@,4541.6810846,4644.6924902,103.0114056,0,0
2439,3#,1,41,31,12,51,62,22,Abstract_Concrete_6tasks_simseq_2seq_listtask_switchAB_fMRI,186201,12534,35142,3,12,92,A3,tools,6,3#,4541.6810846,4653.6928423,112.0117577,0,0
1088,3#,1,41,32,12,51,62,21,Abstract_Concrete_6tasks_simseq_2seq_listtask_switchAB_fMRI,186201,12534,35142,3,13,93,B2,tools,6,3#,4541.6810846,4663.6923713,122.0112867,0,0
2787,2@,1,42,32,12,52,61,21,Abstract_Concrete_6tasks_simseq_2seq_listtask_switchAB_fMRI,186201,12534,35142,3,14,94,A2,vest,2,2@,4541.6810846,4672.6950123,131.0139277,0,0
1554,2@,1,42,32,11,52,61,22,Abstract_Concrete_6tasks_simseq_2seq_listtask_switchAB_fMRI,186201,12534,35142,3,15,95,B5,vest,2,2@,4541.6810846,4682.692078,141.0109934,0,0
2784,9(,1,41,31,12,51,61,22,Abstract_Concrete_6tasks_simseq_2seq_listtask_switchAB_fMRI,186201,12534,35142,3,16,96,A1,helmet,1,9(,4541.6810846,4691.6906771,150.009592500001,0,0
1787,3#,1,41,32,12,51,62,21,Abstract_Concrete_6tasks_simseq_2seq_listtask_switchAB_fMRI,186201,12534,35142,3,17,97,B2,tools,6,3#,4541.6810846,4701.693166,160.0120814,0,0
2891,8*,1,41,31,12,52,61,22,Abstract_Concrete_6tasks_simseq_2seq_listtask_switchAB_fMRI,186201,12534,35142,3,18,98,A4,glasses,3,8*,4541.6810846,4710.6925282,169.0114436,0,0
1575,4$,1,41,31,11,52,62,21,Abstract_Concrete_6tasks_simseq_2seq_listtask_switchAB_fMRI,186201,12534,35142,3,19,99,B4,weapon,5,4$,4541.6810846,4720.6929897,179.0119051,0,0
1335,4$,1,42,32,12,52,61,21,Abstract_Concrete_6tasks_simseq_2seq_listtask_switchAB_fMRI,186201,12534,35142,3,20,100,A5,weapon,5,4$,4541.6810846,4729.6951291,188.0140445,0,0
1536,8*,1,42,31,11,52,62,21,Abstract_Concrete_6tasks_simseq_2seq_listtask_switchAB_fMRI,186201,12534,35142,3,21,101,B1,glasses,3,8*,4541.6810846,4738.6929088,197.0118242,0,0
1719,3#,1,41,31,11,52,61,22,Abstract_Concrete_6tasks_simseq_2seq_listtask_switchAB_fMRI,186201,12534,35142,3,22,102,A3,tools,6,3#,4541.6810846,4747.6922216,206.011137,0,0
1489,2@,1,41,32,12,51,61,21,Abstract_Concrete_6tasks_simseq_2seq_listtask_switchAB_fMRI,186201,12534,35142,3,23,103,B5,vest,2,2@,4541.6810846,4756.6928286,215.011744,0,0
1639,3#,1,42,32,12,52,62,21,Abstract_Concrete_6tasks_simseq_2seq_listtask_switchAB_fMRI,186201,12534,35142,3,24,104,A3,tools,6,3#,4541.6810846,4765.6925609,224.0114763,0,0
2020,3#,1,42,31,12,52,62,22,Abstract_Concrete_6tasks_simseq_2seq_listtask_switchAB_fMRI,186201,12534,35142,3,25,105,B2,tools,6,3#,4541.6810846,4774.6922214,233.0111368,0,0
2311,8*,1,42,32,12,51,62,21,Abstract_Concrete_6tasks_simseq_2seq_listtask_switchAB_fMRI,186201,12534,35142,3,26,106,A4,glasses,3,8*,4541.6810846,4784.6948724,243.013787800001,0,0
4195,9(,1,41,31,11,51,62,21,Abstract_Concrete_6tasks_simseq_2seq_listtask_switchAB_fMRI,186201,12534,35142,3,27,107,B3,helmet,1,9(,4541.6810846,4794.6934834,253.0123988,0,0
2752,3#,1,42,32,11,51,62,22,Abstract_Concrete_6tasks_simseq_2seq_listtask_switchAB_fMRI,186201,12534,35142,3,28,108,A3,tools,6,3#,4541.6810846,4806.6930455,265.0119609,0,0
3956,4$,1,41,32,12,52,62,22,Abstract_Concrete_6tasks_simseq_2seq_listtask_switchAB_fMRI,186201,12534,35142,3,29,109,B4,weapon,5,4$,4541.6810846,4816.6920771,275.0109925,0,0
1804,2@,1,41,31,11,52,61,21,Abstract_Concrete_6tasks_simseq_2seq_listtask_switchAB_fMRI,186201,12534,35142,3,30,110,A2,vest,2,2@,4541.6810846,4827.6931026,286.012018,0,0
3181,4$,1,41,32,11,52,62,22,Abstract_Concrete_6tasks_simseq_2seq_listtask_switchAB_fMRI,186201,12534,35142,3,31,111,B4,weapon,5,4$,4541.6810846,4836.692828,295.0117434,0,0
1906,9(,1,41,32,12,51,61,22,Abstract_Concrete_6tasks_simseq_2seq_listtask_switchAB_fMRI,186201,12534,35142,3,32,112,A1,helmet,1,9(,4541.6810846,4847.6943394,306.0132548,0,0
1798,8*,1,42,32,12,51,62,22,Abstract_Concrete_6tasks_simseq_2seq_listtask_switchAB_fMRI,186201,12534,35142,3,33,113,B1,glasses,3,8*,4541.6810846,4856.693797,315.0127124,0,0
1743,2@,1,41,31,11,52,61,21,Abstract_Concrete_6tasks_simseq_2seq_listtask_switchAB_fMRI,186201,12534,35142,3,34,114,A2,vest,2,2@,4541.6810846,4865.6938249,324.012740300001,0,0
3329,9(,1,41,31,11,51,61,21,Abstract_Concrete_6tasks_simseq_2seq_listtask_switchAB_fMRI,186201,12534,35142,3,35,115,B3,helmet,1,9(,4541.6810846,4874.692059,333.0109744,0,0
2333,8*,1,41,31,11,51,62,21,Abstract_Concrete_6tasks_simseq_2seq_listtask_switchAB_fMRI,186201,12534,35142,3,36,116,A4,glasses,3,8*,4541.6810846,4885.6933001,344.0122155,0,0
1701,4$,1,41,31,12,52,62,22,Abstract_Concrete_6tasks_simseq_2seq_listtask_switchAB_fMRI,186201,12534,35142,3,37,117,B4,weapon,5,4$,4541.6810846,4895.6930171,354.011932500001,0,0
2231,9(,1,42,31,12,51,61,22,Abstract_Concrete_6tasks_simseq_2seq_listtask_switchAB_fMRI,186201,12534,35142,3,38,118,A1,helmet,1,9(,4541.6810846,4904.6930939,363.0120093,0,0
2673,3#,1,41,32,11,52,61,22,Abstract_Concrete_6tasks_simseq_2seq_listtask_switchAB_fMRI,186201,12534,35142,3,39,119,B2,tools,6,3#,4541.6810846,4914.6921748,373.011090200001,0,0
1429,4$,1,41,31,11,51,61,21,Abstract_Concrete_6tasks_simseq_2seq_listtask_switchAB_fMRI,186201,12534,35142,3,40,120,A5,weapon,5,4$,4541.6810846,4924.6925084,383.011423800001,0,0
2474,2@,1,41,31,12,51,62,21,Abstract_Concrete_6tasks_simseq_2seq_listtask_switchAB_fMRI,186201,12534,35142,4,1,121,B5,vest,2,2@,5037.2266812,5045.2375428,8.01086159999977,0,0
2426,4$,0,41,32,12,51,61,22,Abstract_Concrete_6tasks_simseq_2seq_listtask_switchAB_fMRI,186201,12534,35142,4,2,122,A3,tools,6,3#,5037.2266812,5055.237161,18.0104798000002,5057.6831692,20.4564879999998
2066,3#,1,42,31,12,51,61,21,Abstract_Concrete_6tasks_simseq_2seq_listtask_switchAB_fMRI,186201,12534,35142,4,3,123,B2,tools,6,3#,5037.2266812,5065.2397635,28.0130823,0,0
1372,9(,1,42,32,11,52,61,21,Abstract_Concrete_6tasks_simseq_2seq_listtask_switchAB_fMRI,186201,12534,35142,4,4,124,A1,helmet,1,9(,5037.2266812,5075.2384925,38.0118112999999,0,0
2854,3#,1,42,32,11,52,62,21,Abstract_Concrete_6tasks_simseq_2seq_listtask_switchAB_fMRI,186201,12534,35142,4,5,125,B2,tools,6,3#,5037.2266812,5084.2404821,47.0138009000002,0,0
1350,4$,1,41,32,12,51,62,22,Abstract_Concrete_6tasks_simseq_2seq_listtask_switchAB_fMRI,186201,12534,35142,4,6,126,A5,weapon,5,4$,5037.2266812,5094.2383812,57.0117,0,0
1222,8*,1,42,32,11,51,62,22,Abstract_Concrete_6tasks_simseq_2seq_listtask_switchAB_fMRI,186201,12534,35142,4,7,127,B1,glasses,3,8*,5037.2266812,5103.2382093,66.0115280999999,0,0
2192,3#,1,42,32,12,51,62,22,Abstract_Concrete_6tasks_simseq_2seq_listtask_switchAB_fMRI,186201,12534,35142,4,8,128,A3,tools,6,3#,5037.2266812,5112.240866,75.0141848000003,0,0
1383,2@,1,41,31,11,51,61,22,Abstract_Concrete_6tasks_simseq_2seq_listtask_switchAB_fMRI,186201,12534,35142,4,9,129,B5,vest,2,2@,5037.2266812,5122.2402765,85.0135952999999,0,0
1821,2@,1,41,31,12,52,62,21,Abstract_Concrete_6tasks_simseq_2seq_listtask_switchAB_fMRI,186201,12534,35142,4,10,130,A2,vest,2,2@,5037.2266812,5131.2393091,94.0126279000006,0,0
2022,2@,1,41,31,12,51,62,22,Abstract_Concrete_6tasks_simseq_2seq_listtask_switchAB_fMRI,186201,12534,35142,4,11,131,B5,vest,2,2@,5037.2266812,5140.2389431,103.0122619,0,0
1953,8*,1,42,32,11,51,61,21,Abstract_Concrete_6tasks_simseq_2seq_listtask_switchAB_fMRI,186201,12534,35142,4,12,132,A4,glasses,3,8*,5037.2266812,5150.2387995,113.0121183,0,0
3415,4$,1,41,31,11,52,62,22,Abstract_Concrete_6tasks_simseq_2seq_listtask_switchAB_fMRI,186201,12534,35142,4,13,133,B4,weapon,5,4$,5037.2266812,5159.2382329,122.0115517,0,0
1544,8*,1,41,31,12,51,61,22,Abstract_Concrete_6tasks_simseq_2seq_listtask_switchAB_fMRI,186201,12534,35142,4,14,134,A4,glasses,3,8*,5037.2266812,5170.2402,133.0135188,0,0
1539,2@,1,42,31,12,51,61,21,Abstract_Concrete_6tasks_simseq_2seq_listtask_switchAB_fMRI,186201,12534,35142,4,15,135,B5,vest,2,2@,5037.2266812,5179.2404686,142.0137874,0,0
2386,3#,1,42,32,12,52,61,21,Abstract_Concrete_6tasks_simseq_2seq_listtask_switchAB_fMRI,186201,12534,35142,4,16,136,A3,tools,6,3#,5037.2266812,5188.2408897,151.0142085,0,0
2313,9(,1,41,32,12,52,62,22,Abstract_Concrete_6tasks_simseq_2seq_listtask_switchAB_fMRI,186201,12534,35142,4,17,137,B3,helmet,1,9(,5037.2266812,5198.2389434,161.0122622,0,0
1799,2@,1,42,31,11,51,62,21,Abstract_Concrete_6tasks_simseq_2seq_listtask_switchAB_fMRI,186201,12534,35142,4,18,138,A2,vest,2,2@,5037.2266812,5208.2384611,171.0117799,0,0
1848,8*,1,42,31,11,51,62,21,Abstract_Concrete_6tasks_simseq_2seq_listtask_switchAB_fMRI,186201,12534,35142,4,19,139,B1,glasses,3,8*,5037.2266812,5217.2389454,180.012264200001,0,0
4351,8*,1,41,32,11,52,62,22,Abstract_Concrete_6tasks_simseq_2seq_listtask_switchAB_fMRI,186201,12534,35142,4,20,140,A4,glasses,3,8*,5037.2266812,5226.2401205,189.0134393,0,0
1153,8*,1,41,31,12,51,62,21,Abstract_Concrete_6tasks_simseq_2seq_listtask_switchAB_fMRI,186201,12534,35142,4,21,141,B1,glasses,3,8*,5037.2266812,5238.2382534,201.0115722,0,0
1975,9(,1,42,31,11,52,62,21,Abstract_Concrete_6tasks_simseq_2seq_listtask_switchAB_fMRI,186201,12534,35142,4,22,142,A1,helmet,1,9(,5037.2266812,5247.2387213,210.0120401,0,0
1620,4$,1,41,32,11,52,61,22,Abstract_Concrete_6tasks_simseq_2seq_listtask_switchAB_fMRI,186201,12534,35142,4,23,143,B4,weapon,5,4$,5037.2266812,5256.2375671,219.0108859,0,0
1882,4$,1,41,31,12,51,61,21,Abstract_Concrete_6tasks_simseq_2seq_listtask_switchAB_fMRI,186201,12534,35142,4,24,144,A5,weapon,5,4$,5037.2266812,5265.240178,228.0134968,0,0
2288,9(,1,42,32,11,52,61,21,Abstract_Concrete_6tasks_simseq_2seq_listtask_switchAB_fMRI,186201,12534,35142,4,25,145,B3,helmet,1,9(,5037.2266812,5274.2401472,237.013466,0,0
2264,2@,1,42,31,11,51,62,22,Abstract_Concrete_6tasks_simseq_2seq_listtask_switchAB_fMRI,186201,12534,35142,4,26,146,A2,vest,2,2@,5037.2266812,5284.2389576,247.0122764,0,0
2251,3#,1,42,32,12,51,62,21,Abstract_Concrete_6tasks_simseq_2seq_listtask_switchAB_fMRI,186201,12534,35142,4,27,147,B2,tools,6,3#,5037.2266812,5294.238603,257.0119218,0,0
1315,4$,1,42,31,11,51,62,21,Abstract_Concrete_6tasks_simseq_2seq_listtask_switchAB_fMRI,186201,12534,35142,4,28,148,A5,weapon,5,4$,5037.2266812,5304.2397562,267.013075,0,0
1693,4$,1,42,31,12,51,62,21,Abstract_Concrete_6tasks_simseq_2seq_listtask_switchAB_fMRI,186201,12534,35142,4,29,149,B4,weapon,5,4$,5037.2266812,5313.2405573,276.0138761,0,0
1246,4$,1,42,31,11,51,62,22,Abstract_Concrete_6tasks_simseq_2seq_listtask_switchAB_fMRI,186201,12534,35142,4,30,150,A5,weapon,5,4$,5037.2266812,5322.2376548,285.0109736,0,0
2247,9(,1,42,32,12,51,62,21,Abstract_Concrete_6tasks_simseq_2seq_listtask_switchAB_fMRI,186201,12534,35142,4,31,151,B3,helmet,1,9(,5037.2266812,5331.2386723,294.0119911,0,0
1203,9(,1,42,31,11,51,62,21,Abstract_Concrete_6tasks_simseq_2seq_listtask_switchAB_fMRI,186201,12534,35142,4,32,152,A1,helmet,1,9(,5037.2266812,5341.2398408,304.0131596,0,0
2444,8*,1,41,31,12,51,62,21,Abstract_Concrete_6tasks_simseq_2seq_listtask_switchAB_fMRI,186201,12534,35142,4,33,153,B1,glasses,3,8*,5037.2266812,5350.2397976,313.0131164,0,0
2179,9(,1,42,31,12,52,61,21,Abstract_Concrete_6tasks_simseq_2seq_listtask_switchAB_fMRI,186201,12534,35142,4,34,154,A1,helmet,1,9(,5037.2266812,5360.2399185,323.013237300001,0,0
1782,4$,1,42,31,12,51,61,22,Abstract_Concrete_6tasks_simseq_2seq_listtask_switchAB_fMRI,186201,12534,35142,4,35,155,B4,weapon,5,4$,5037.2266812,5370.2378778,333.0111966,0,0
1975,3#,1,42,32,12,52,62,21,Abstract_Concrete_6tasks_simseq_2seq_listtask_switchAB_fMRI,186201,12534,35142,4,36,156,A3,tools,6,3#,5037.2266812,5379.2394176,342.0127364,0,0
2438,3#,1,41,31,11,51,61,21,Abstract_Concrete_6tasks_simseq_2seq_listtask_switchAB_fMRI,186201,12534,35142,4,37,157,B2,tools,6,3#,5037.2266812,5388.2373741,351.0106929,0,0
2292,8*,1,42,31,11,51,62,21,Abstract_Concrete_6tasks_simseq_2seq_listtask_switchAB_fMRI,186201,12534,35142,4,38,158,A4,glasses,3,8*,5037.2266812,5398.2385472,361.011866,0,0
1647,9(,1,41,31,11,52,62,22,Abstract_Concrete_6tasks_simseq_2seq_listtask_switchAB_fMRI,186201,12534,35142,4,39,159,B3,helmet,1,9(,5037.2266812,5408.2387908,371.0121096,0,0
1566,2@,1,41,31,11,52,61,22,Abstract_Concrete_6tasks_simseq_2seq_listtask_switchAB_fMRI,186201,12534,35142,4,40,160,A2,vest,2,2@,5037.2266812,5417.2382524,380.011571200001,0,0
1413,9(,1,41,31,12,51,62,22,Abstract_Concrete_6tasks_simseq_2seq_listtask_switchAB_fMRI,186201,12534,35142,5,1,161,A1,helmet,1,9(,5470.5225152,5478.5332339,8.01071869999942,0,0
1252,3#,1,42,32,11,52,61,22,Abstract_Concrete_6tasks_simseq_2seq_listtask_switchAB_fMRI,186201,12534,35142,5,2,162,B2,tools,6,3#,5470.5225152,5487.5326025,17.0100873000001,0,0
1950,2@,1,42,32,12,52,61,22,Abstract_Concrete_6tasks_simseq_2seq_listtask_switchAB_fMRI,186201,12534,35142,5,3,163,A2,vest,2,2@,5470.5225152,5496.5352934,26.0127782,0,0
1865,4$,1,41,31,11,52,61,21,Abstract_Concrete_6tasks_simseq_2seq_listtask_switchAB_fMRI,186201,12534,35142,5,4,164,B4,weapon,5,4$,5470.5225152,5505.5341757,35.0116604999994,0,0
959,4$,1,41,32,12,51,61,22,Abstract_Concrete_6tasks_simseq_2seq_listtask_switchAB_fMRI,186201,12534,35142,5,5,165,A5,weapon,5,4$,5470.5225152,5514.534649,44.0121337999999,0,0
2085,9(,1,42,31,11,52,62,21,Abstract_Concrete_6tasks_simseq_2seq_listtask_switchAB_fMRI,186201,12534,35142,5,6,166,B3,helmet,1,9(,5470.5225152,5522.5354787,52.0129634999994,0,0
1110,3#,1,41,31,11,52,62,22,Abstract_Concrete_6tasks_simseq_2seq_listtask_switchAB_fMRI,186201,12534,35142,5,7,167,A3,tools,6,3#,5470.5225152,5532.5360184,62.0135031999998,0,0
1453,3#,1,41,31,12,51,61,22,Abstract_Concrete_6tasks_simseq_2seq_listtask_switchAB_fMRI,186201,12534,35142,5,8,168,B2,tools,6,3#,5470.5225152,5541.5351716,71.0126563999993,0,0
1168,4$,1,42,31,11,51,62,22,Abstract_Concrete_6tasks_simseq_2seq_listtask_switchAB_fMRI,186201,12534,35142,5,9,169,A5,weapon,5,4$,5470.5225152,5550.5367142,80.0141989999993,0,0
2415,3#,1,41,31,11,51,62,21,Abstract_Concrete_6tasks_simseq_2seq_listtask_switchAB_fMRI,186201,12534,35142,5,10,170,B2,tools,6,3#,5470.5225152,5559.5348256,89.0123103999995,0,0
1197,3#,1,41,32,11,51,62,22,Abstract_Concrete_6tasks_simseq_2seq_listtask_switchAB_fMRI,186201,12534,35142,5,11,171,A3,tools,6,3#,5470.5225152,5569.5347775,99.0122622999997,0,0
1721,8*,1,41,32,12,51,61,22,Abstract_Concrete_6tasks_simseq_2seq_listtask_switchAB_fMRI,186201,12534,35142,5,12,172,B1,glasses,3,8*,5470.5225152,5578.5354417,108.0129265,0,0
1178,9(,1,41,32,11,51,61,21,Abstract_Concrete_6tasks_simseq_2seq_listtask_switchAB_fMRI,186201,12534,35142,5,13,173,A1,helmet,1,9(,5470.5225152,5587.5338229,117.0113077,0,0
1994,2@,1,41,32,11,52,62,21,Abstract_Concrete_6tasks_simseq_2seq_listtask_switchAB_fMRI,186201,12534,35142,5,14,174,B5,vest,2,2@,5470.5225152,5596.5342033,126.011688099999,0,0
1180,9(,1,41,32,11,51,61,22,Abstract_Concrete_6tasks_simseq_2seq_listtask_switchAB_fMRI,186201,12534,35142,5,15,175,A1,helmet,1,9(,5470.5225152,5606.5352325,136.0127173,0,0
1624,3#,1,42,31,12,52,62,22,Abstract_Concrete_6tasks_simseq_2seq_listtask_switchAB_fMRI,186201,12534,35142,5,16,176,B2,tools,6,3#,5470.5225152,5615.5338347,145.011319499999,0,0
2061,2@,1,42,32,12,51,61,21,Abstract_Concrete_6tasks_simseq_2seq_listtask_switchAB_fMRI,186201,12534,35142,5,17,177,A2,vest,2,2@,5470.5225152,5624.5338367,154.0113215,0,0
1373,8*,1,42,31,12,51,62,22,Abstract_Concrete_6tasks_simseq_2seq_listtask_switchAB_fMRI,186201,12534,35142,5,18,178,B1,glasses,3,8*,5470.5225152,5634.5347719,164.0122567,0,0
1356,4$,1,41,32,11,51,62,21,Abstract_Concrete_6tasks_simseq_2seq_listtask_switchAB_fMRI,186201,12534,35142,5,19,179,A5,weapon,5,4$,5470.5225152,5643.5339468,173.0114316,0,0
1310,8*,1,42,31,11,52,62,22,Abstract_Concrete_6tasks_simseq_2seq_listtask_switchAB_fMRI,186201,12534,35142,5,20,180,B1,glasses,3,8*,5470.5225152,5652.533904,182.0113888,0,0
1671,2@,1,42,31,11,51,62,21,Abstract_Concrete_6tasks_simseq_2seq_listtask_switchAB_fMRI,186201,12534,35142,5,21,181,A2,vest,2,2@,5470.5225152,5661.5342839,191.0117687,0,0
3532,9(,1,41,31,11,52,62,22,Abstract_Concrete_6tasks_simseq_2seq_listtask_switchAB_fMRI,186201,12534,35142,5,22,182,B3,helmet,1,9(,5470.5225152,5670.5357888,200.0132736,0,0
1754,3#,1,42,32,11,51,62,22,Abstract_Concrete_6tasks_simseq_2seq_listtask_switchAB_fMRI,186201,12534,35142,5,23,183,A3,tools,6,3#,5470.5225152,5681.5363131,211.0137979,0,0
2033,2@,1,41,32,12,52,61,21,Abstract_Concrete_6tasks_simseq_2seq_listtask_switchAB_fMRI,186201,12534,35142,5,24,184,B5,vest,2,2@,5470.5225152,5690.5347176,220.012202399999,0,0
2145,8*,1,41,32,11,51,61,21,Abstract_Concrete_6tasks_simseq_2seq_listtask_switchAB_fMRI,186201,12534,35142,5,25,185,A4,glasses,3,8*,5470.5225152,5700.5361152,230.013599999999,0,0
2336,9(,1,42,31,11,51,62,21,Abstract_Concrete_6tasks_simseq_2seq_listtask_switchAB_fMRI,186201,12534,35142,5,26,186,B3,helmet,1,9(,5470.5225152,5710.535258,240.0127428,0,0
1428,9(,1,42,32,12,51,61,22,Abstract_Concrete_6tasks_simseq_2seq_listtask_switchAB_fMRI,186201,12534,35142,5,27,187,A1,helmet,1,9(,5470.5225152,5720.5325778,250.010062599999,0,0
1628,2@,1,42,32,11,52,61,21,Abstract_Concrete_6tasks_simseq_2seq_listtask_switchAB_fMRI,186201,12534,35142,5,28,188,B5,vest,2,2@,5470.5225152,5729.5342008,259.0116856,0,0
1234,3#,1,42,32,11,51,61,22,Abstract_Concrete_6tasks_simseq_2seq_listtask_switchAB_fMRI,186201,12534,35142,5,29,189,A3,tools,6,3#,5470.5225152,5738.5356825,268.0131673,0,0
2917,4$,1,41,31,12,51,62,21,Abstract_Concrete_6tasks_simseq_2seq_listtask_switchAB_fMRI,186201,12534,35142,5,30,190,B4,weapon,5,4$,5470.5225152,5747.533479,277.010963799999,0,0
2076,8*,1,41,32,11,52,62,21,Abstract_Concrete_6tasks_simseq_2seq_listtask_switchAB_fMRI,186201,12534,35142,5,31,191,A4,glasses,3,8*,5470.5225152,5757.5339747,287.0114595,0,0
2180,4$,1,41,32,12,52,62,22,Abstract_Concrete_6tasks_simseq_2seq_listtask_switchAB_fMRI,186201,12534,35142,5,32,192,B4,weapon,5,4$,5470.5225152,5767.5336222,297.011106999999,0,0
1040,4$,1,41,32,12,51,61,22,Abstract_Concrete_6tasks_simseq_2seq_listtask_switchAB_fMRI,186201,12534,35142,5,33,193,A5,weapon,5,4$,5470.5225152,5777.5324382,307.009923,0,0
1340,8*,1,41,31,11,51,62,21,Abstract_Concrete_6tasks_simseq_2seq_listtask_switchAB_fMRI,186201,12534,35142,5,34,194,B1,glasses,3,8*,5470.5225152,5786.5361901,316.013674899999,0,0
2190,2@,1,41,32,12,51,62,22,Abstract_Concrete_6tasks_simseq_2seq_listtask_switchAB_fMRI,186201,12534,35142,5,35,195,A2,vest,2,2@,5470.5225152,5795.5337491,325.0112339,0,0
3462,4$,1,41,32,11,51,61,21,Abstract_Concrete_6tasks_simseq_2seq_listtask_switchAB_fMRI,186201,12534,35142,5,36,196,B4,weapon,5,4$,5470.5225152,5805.5344827,335.0119675,0,0
2979,8*,1,41,31,11,52,61,21,Abstract_Concrete_6tasks_simseq_2seq_listtask_switchAB_fMRI,186201,12534,35142,5,37,197,A4,glasses,3,8*,5470.5225152,5816.5329677,346.0104525,0,0
2547,9(,1,41,31,12,51,62,21,Abstract_Concrete_6tasks_simseq_2seq_listtask_switchAB_fMRI,186201,12534,35142,5,38,198,B3,helmet,1,9(,5470.5225152,5826.5332878,356.0107726,0,0
1950,8*,1,42,31,12,52,62,22,Abstract_Concrete_6tasks_simseq_2seq_listtask_switchAB_fMRI,186201,12534,35142,5,39,199,A4,glasses,3,8*,5470.5225152,5836.5341166,366.0116014,0,0
1465,2@,1,41,31,12,51,62,21,Abstract_Concrete_6tasks_simseq_2seq_listtask_switchAB_fMRI,186201,12534,35142,5,40,200,B5,vest,2,2@,5470.5225152,5845.5351685,375.012653299999,0,0
2472,9(,1,42,31,11,51,62,21,Abstract_Concrete_6tasks_simseq_2seq_listtask_switchAB_fMRI,186201,12534,35142,6,1,201,B3,helmet,1,9(,5901.4101181,5909.4206423,8.01052419999996,0,0
2133,2@,1,42,32,12,51,61,21,Abstract_Concrete_6tasks_simseq_2seq_listtask_switchAB_fMRI,186201,12534,35142,6,2,202,A2,vest,2,2@,5901.4101181,5919.4214038,18.0112857000004,0,0
1582,4$,1,42,32,12,51,61,21,Abstract_Concrete_6tasks_simseq_2seq_listtask_switchAB_fMRI,186201,12534,35142,6,3,203,B4,weapon,5,4$,5901.4101181,5929.4221328,28.0120147000007,0,0
2131,3#,1,41,31,12,51,61,22,Abstract_Concrete_6tasks_simseq_2seq_listtask_switchAB_fMRI,186201,12534,35142,6,4,204,A3,tools,6,3#,5901.4101181,5938.4238769,37.0137588000007,0,0
2790,2@,1,41,31,11,52,62,22,Abstract_Concrete_6tasks_simseq_2seq_listtask_switchAB_fMRI,186201,12534,35142,6,5,205,B5,vest,2,2@,5901.4101181,5948.4238124,47.0136943000007,0,0
1304,4$,1,41,32,11,51,61,22,Abstract_Concrete_6tasks_simseq_2seq_listtask_switchAB_fMRI,186201,12534,35142,6,6,206,A5,weapon,5,4$,5901.4101181,5958.4226545,57.0125364000005,0,0
1170,2@,1,41,32,11,52,62,21,Abstract_Concrete_6tasks_simseq_2seq_listtask_switchAB_fMRI,186201,12534,35142,6,7,207,B5,vest,2,2@,5901.4101181,5967.4222193,66.0121012,0,0
2345,3#,1,42,32,12,51,62,22,Abstract_Concrete_6tasks_simseq_2seq_listtask_switchAB_fMRI,186201,12534,35142,6,8,208,A3,tools,6,3#,5901.4101181,5976.4240811,75.0139630000003,0,0
1658,4$,1,41,31,12,51,62,22,Abstract_Concrete_6tasks_simseq_2seq_listtask_switchAB_fMRI,186201,12534,35142,6,9,209,B4,weapon,5,4$,5901.4101181,5986.422273,85.0121549000005,0,0
974,4$,1,42,32,12,51,62,22,Abstract_Concrete_6tasks_simseq_2seq_listtask_switchAB_fMRI,186201,12534,35142,6,10,210,A5,weapon,5,4$,5901.4101181,5995.4217982,94.0116801000004,0,0
1616,9(,1,42,31,11,51,61,21,Abstract_Concrete_6tasks_simseq_2seq_listtask_switchAB_fMRI,186201,12534,35142,6,11,211,B3,helmet,1,9(,5901.4101181,6003.4218134,102.011695300001,0,0
1868,2@,1,41,32,12,52,61,22,Abstract_Concrete_6tasks_simseq_2seq_listtask_switchAB_fMRI,186201,12534,35142,6,12,212,A2,vest,2,2@,5901.4101181,6012.4228264,111.012708300001,0,0
2104,3#,1,41,32,12,51,61,21,Abstract_Concrete_6tasks_simseq_2seq_listtask_switchAB_fMRI,186201,12534,35142,6,13,213,B2,tools,6,3#,5901.4101181,6021.4210599,120.0109418,0,0
1169,3#,1,42,31,11,52,62,21,Abstract_Concrete_6tasks_simseq_2seq_listtask_switchAB_fMRI,186201,12534,35142,6,14,214,A3,tools,6,3#,5901.4101181,6031.4220891,130.011971000001,0,0
1502,8*,1,42,31,12,51,61,22,Abstract_Concrete_6tasks_simseq_2seq_listtask_switchAB_fMRI,186201,12534,35142,6,15,215,B1,glasses,3,8*,5901.4101181,6040.4225098,139.0123917,0,0
3403,2@,1,42,31,12,51,62,21,Abstract_Concrete_6tasks_simseq_2seq_listtask_switchAB_fMRI,186201,12534,35142,6,16,216,A2,vest,2,2@,5901.4101181,6049.4241928,148.0140747,0,0
1124,8*,1,42,31,12,52,61,21,Abstract_Concrete_6tasks_simseq_2seq_listtask_switchAB_fMRI,186201,12534,35142,6,17,217,B1,glasses,3,8*,5901.4101181,6060.4230667,159.012948600001,0,0
1157,4$,1,41,32,12,52,62,21,Abstract_Concrete_6tasks_simseq_2seq_listtask_switchAB_fMRI,186201,12534,35142,6,18,218,A5,weapon,5,4$,5901.4101181,6069.4240973,168.0139792,0,0
1415,8*,1,41,32,11,52,61,21,Abstract_Concrete_6tasks_simseq_2seq_listtask_switchAB_fMRI,186201,12534,35142,6,19,219,B1,glasses,3,8*,5901.4101181,6078.424337,177.014218900001,0,0
2239,8*,1,41,31,11,52,61,21,Abstract_Concrete_6tasks_simseq_2seq_listtask_switchAB_fMRI,186201,12534,35142,6,20,220,A4,glasses,3,8*,5901.4101181,6087.4238197,186.013701600001,0,0
1922,4$,1,41,32,11,51,61,21,Abstract_Concrete_6tasks_simseq_2seq_listtask_switchAB_fMRI,186201,12534,35142,6,21,221,B4,weapon,5,4$,5901.4101181,6097.4218993,196.011781200001,0,0
1894,9(,1,41,31,12,52,62,22,Abstract_Concrete_6tasks_simseq_2seq_listtask_switchAB_fMRI,186201,12534,35142,6,22,222,A1,helmet,1,9(,5901.4101181,6106.4209209,205.0108028,0,0
2239,3#,1,42,31,11,51,61,21,Abstract_Concrete_6tasks_simseq_2seq_listtask_switchAB_fMRI,186201,12534,35142,6,23,223,B2,tools,6,3#,5901.4101181,6115.4219505,214.0118324,0,0
1085,9(,1,42,31,11,52,61,21,Abstract_Concrete_6tasks_simseq_2seq_listtask_switchAB_fMRI,186201,12534,35142,6,24,224,A1,helmet,1,9(,5901.4101181,6125.4211216,224.011003500001,0,0
1797,9(,1,42,31,12,52,62,21,Abstract_Concrete_6tasks_simseq_2seq_listtask_switchAB_fMRI,186201,12534,35142,6,25,225,B3,helmet,1,9(,5901.4101181,6134.4220756,233.011957500001,0,0
2379,8*,1,42,31,11,51,62,22,Abstract_Concrete_6tasks_simseq_2seq_listtask_switchAB_fMRI,186201,12534,35142,6,26,226,A4,glasses,3,8*,5901.4101181,6143.4208723,242.010754200001,0,0
1613,9(,1,41,31,12,51,62,21,Abstract_Concrete_6tasks_simseq_2seq_listtask_switchAB_fMRI,186201,12534,35142,6,27,227,B3,helmet,1,9(,5901.4101181,6153.4222031,252.012085,0,0
2079,2@,1,42,32,11,52,61,21,Abstract_Concrete_6tasks_simseq_2seq_listtask_switchAB_fMRI,186201,12534,35142,6,28,228,A2,vest,2,2@,5901.4101181,6162.420969,261.0108509,0,0
1811,8*,0,41,32,12,51,61,22,Abstract_Concrete_6tasks_simseq_2seq_listtask_switchAB_fMRI,186201,12534,35142,6,29,229,B2,tools,6,3#,5901.4101181,6172.4219013,271.011783200001,6174.2473965,272.8372784
2028,8*,1,41,32,11,51,61,22,Abstract_Concrete_6tasks_simseq_2seq_listtask_switchAB_fMRI,186201,12534,35142,6,30,230,A4,glasses,3,8*,5901.4101181,6181.4195714,280.0094533,0,0
1395,3#,1,42,32,11,52,61,21,Abstract_Concrete_6tasks_simseq_2seq_listtask_switchAB_fMRI,186201,12534,35142,6,31,231,B2,tools,6,3#,5901.4101181,6191.4222034,290.012085300001,0,0
2143,9(,1,41,32,12,51,62,22,Abstract_Concrete_6tasks_simseq_2seq_listtask_switchAB_fMRI,186201,12534,35142,6,32,232,A1,helmet,1,9(,5901.4101181,6200.4267254,299.0166073,0,0
1547,4$,1,42,32,11,52,61,21,Abstract_Concrete_6tasks_simseq_2seq_listtask_switchAB_fMRI,186201,12534,35142,6,33,233,B4,weapon,5,4$,5901.4101181,6210.4216462,309.011528100001,0,0
2560,3#,1,42,32,11,52,61,22,Abstract_Concrete_6tasks_simseq_2seq_listtask_switchAB_fMRI,186201,12534,35142,6,34,234,A3,tools,6,3#,5901.4101181,6219.4210039,318.0108858,0,0
1338,2@,1,41,32,12,51,62,22,Abstract_Concrete_6tasks_simseq_2seq_listtask_switchAB_fMRI,186201,12534,35142,6,35,235,B5,vest,2,2@,5901.4101181,6229.4218411,328.011723000001,0,0
1798,8*,1,41,31,12,52,62,21,Abstract_Concrete_6tasks_simseq_2seq_listtask_switchAB_fMRI,186201,12534,35142,6,36,236,A4,glasses,3,8*,5901.4101181,6238.4244463,337.014328200001,0,0
2140,2@,1,42,31,11,52,62,22,Abstract_Concrete_6tasks_simseq_2seq_listtask_switchAB_fMRI,186201,12534,35142,6,37,237,B5,vest,2,2@,5901.4101181,6247.4206689,346.010550800001,0,0
1179,4$,1,41,31,12,51,61,22,Abstract_Concrete_6tasks_simseq_2seq_listtask_switchAB_fMRI,186201,12534,35142,6,38,238,A5,weapon,5,4$,5901.4101181,6257.4203488,356.010230700001,0,0
1768,8*,1,41,31,12,51,62,22,Abstract_Concrete_6tasks_simseq_2seq_listtask_switchAB_fMRI,186201,12534,35142,6,39,239,B1,glasses,3,8*,5901.4101181,6266.422224,365.0121059,0,0
1642,9(,1,42,32,12,52,62,21,Abstract_Concrete_6tasks_simseq_2seq_listtask_switchAB_fMRI,186201,12534,35142,6,40,240,A1,helmet,1,9(,5901.4101181,6275.4208638,374.0107457,0,0
