rt1,resp1,correct1,features_1,features_2,features_3,features_4,features_5,features_6,ExpName,subNo,seqA,seqB,block,trial,trialnum,cuetype,task,subtaskcode,corr_resp1,onsetTime_s,onsetTime_cue,onset_cue,onsetTime_cue_fb,onset_cue_fb
4391,4$,1,32,62,42,22,52,11,Abstract_Concrete_6tasks_simseq_2seq_listtask_switchAB_fMRI,297626,12345,43152,1,1,1,A2,vest,2,4$,5688.8516095,5696.8627591,8.01114959999995,0,0
3729,4$,1,32,62,42,22,52,11,Abstract_Concrete_6tasks_simseq_2seq_listtask_switchAB_fMRI,297626,12345,43152,1,2,2,B5,vest,2,4$,5688.8516095,5708.8644399,20.0128304,0,0
2588,8*,0,32,61,41,22,51,12,Abstract_Concrete_6tasks_simseq_2seq_listtask_switchAB_fMRI,297626,12345,43152,1,3,3,A4,weapon,5,3#,5688.8516095,5719.8647532,31.0131437,5722.4716202,33.6200106999995
2346,3#,1,32,62,41,21,52,11,Abstract_Concrete_6tasks_simseq_2seq_listtask_switchAB_fMRI,297626,12345,43152,1,4,4,B1,weapon,5,3#,5688.8516095,5729.8629131,41.0113035999993,0,0
3194,7&,1,31,62,41,22,52,11,Abstract_Concrete_6tasks_simseq_2seq_listtask_switchAB_fMRI,297626,12345,43152,1,5,5,A3,glasses,3,7&,5688.8516095,5739.8618534,51.0102438999993,0,0
4864,3#,1,31,62,42,21,51,11,Abstract_Concrete_6tasks_simseq_2seq_listtask_switchAB_fMRI,297626,12345,43152,1,6,6,B1,weapon,5,3#,5688.8516095,5750.8633328,62.0117232999992,0,0
3948,4$,1,31,62,42,21,52,12,Abstract_Concrete_6tasks_simseq_2seq_listtask_switchAB_fMRI,297626,12345,43152,1,7,7,A2,vest,2,4$,5688.8516095,5762.8646469,74.0130373999991,0,0
4001,8*,1,31,61,41,22,51,12,Abstract_Concrete_6tasks_simseq_2seq_listtask_switchAB_fMRI,297626,12345,43152,1,8,8,B4,tools,6,8*,5688.8516095,5773.8616271,85.0100175999996,0,0
1498,4$,0,31,62,41,22,51,11,Abstract_Concrete_6tasks_simseq_2seq_listtask_switchAB_fMRI,297626,12345,43152,1,9,9,A5,tools,6,8*,5688.8516095,5785.8629646,97.0113550999995,5787.3745377,98.5229281999991
2753,7&,1,31,61,42,22,51,11,Abstract_Concrete_6tasks_simseq_2seq_listtask_switchAB_fMRI,297626,12345,43152,1,10,10,B2,glasses,3,7&,5688.8516095,5794.8618063,106.0101968,0,0
6302,3#,1,32,62,42,22,52,12,Abstract_Concrete_6tasks_simseq_2seq_listtask_switchAB_fMRI,297626,12345,43152,1,11,11,A4,weapon,5,3#,5688.8516095,5804.8632472,116.011637699999,0,0
4291,8*,1,31,62,41,22,51,11,Abstract_Concrete_6tasks_simseq_2seq_listtask_switchAB_fMRI,297626,12345,43152,1,12,12,B4,tools,6,8*,5688.8516095,5818.8639796,130.012370099999,0,0
2608,8*,1,32,61,41,22,51,11,Abstract_Concrete_6tasks_simseq_2seq_listtask_switchAB_fMRI,297626,12345,43152,1,13,13,A5,tools,6,8*,5688.8516095,5830.8632989,142.011689399999,0,0
3161,7&,1,31,61,42,22,51,12,Abstract_Concrete_6tasks_simseq_2seq_listtask_switchAB_fMRI,297626,12345,43152,1,14,14,B2,glasses,3,7&,5688.8516095,5840.8626723,152.011062799999,0,0
1424,2@,1,32,61,42,22,52,12,Abstract_Concrete_6tasks_simseq_2seq_listtask_switchAB_fMRI,297626,12345,43152,1,15,15,A1,helmet,1,2@,5688.8516095,5851.865494,163.013884499999,0,0
3730,7&,0,31,62,42,21,52,12,Abstract_Concrete_6tasks_simseq_2seq_listtask_switchAB_fMRI,297626,12345,43152,1,16,16,B3,helmet,1,2@,5688.8516095,5860.8654877,172.013878199999,5864.6084819,175.756872399999
4118,8*,1,31,61,42,21,51,11,Abstract_Concrete_6tasks_simseq_2seq_listtask_switchAB_fMRI,297626,12345,43152,1,17,17,A5,tools,6,8*,5688.8516095,5871.8636166,183.012007099999,0,0
2182,4$,1,31,62,42,21,52,11,Abstract_Concrete_6tasks_simseq_2seq_listtask_switchAB_fMRI,297626,12345,43152,1,18,18,B5,vest,2,4$,5688.8516095,5883.8641603,195.012550799999,0,0
2494,4$,1,31,61,42,22,52,12,Abstract_Concrete_6tasks_simseq_2seq_listtask_switchAB_fMRI,297626,12345,43152,1,19,19,A2,vest,2,4$,5688.8516095,5893.8639559,205.0123464,0,0
5308,7&,0,32,62,41,22,51,11,Abstract_Concrete_6tasks_simseq_2seq_listtask_switchAB_fMRI,297626,12345,43152,1,20,20,B4,tools,6,8*,5688.8516095,5903.8632355,215.011626,5909.184158,220.3325485
2973,7&,1,32,61,42,22,52,11,Abstract_Concrete_6tasks_simseq_2seq_listtask_switchAB_fMRI,297626,12345,43152,1,21,21,A3,glasses,3,7&,5688.8516095,5916.862615,228.0110055,0,0
3286,2@,1,32,61,42,21,52,11,Abstract_Concrete_6tasks_simseq_2seq_listtask_switchAB_fMRI,297626,12345,43152,1,22,22,B3,helmet,1,2@,5688.8516095,5926.8628401,238.011230599999,0,0
2515,7&,0,32,61,42,22,52,11,Abstract_Concrete_6tasks_simseq_2seq_listtask_switchAB_fMRI,297626,12345,43152,1,23,23,A4,weapon,5,3#,5688.8516095,5937.8635908,249.011981299999,5940.3931579,251.5415484
2060,3#,1,32,61,42,21,52,11,Abstract_Concrete_6tasks_simseq_2seq_listtask_switchAB_fMRI,297626,12345,43152,1,24,24,B1,weapon,5,3#,5688.8516095,5947.8623298,259.0107203,0,0
1356,2@,1,31,61,41,22,52,12,Abstract_Concrete_6tasks_simseq_2seq_listtask_switchAB_fMRI,297626,12345,43152,1,25,25,A1,helmet,1,2@,5688.8516095,5957.8636824,269.012072899999,0,0
2687,2@,1,32,62,42,21,51,11,Abstract_Concrete_6tasks_simseq_2seq_listtask_switchAB_fMRI,297626,12345,43152,1,26,26,B3,helmet,1,2@,5688.8516095,5966.8634977,278.0118882,0,0
4276,7&,1,31,61,42,22,52,11,Abstract_Concrete_6tasks_simseq_2seq_listtask_switchAB_fMRI,297626,12345,43152,1,27,27,A3,glasses,3,7&,5688.8516095,5976.8645829,288.012973399999,0,0
5441,2@,1,32,61,41,21,52,11,Abstract_Concrete_6tasks_simseq_2seq_listtask_switchAB_fMRI,297626,12345,43152,1,28,28,B3,helmet,1,2@,5688.8516095,5988.8648686,300.013259099999,0,0
2233,7&,1,31,61,42,22,52,11,Abstract_Concrete_6tasks_simseq_2seq_listtask_switchAB_fMRI,297626,12345,43152,1,29,29,A3,glasses,3,7&,5688.8516095,6001.8623234,313.010713899999,0,0
3328,7&,1,31,62,42,22,52,11,Abstract_Concrete_6tasks_simseq_2seq_listtask_switchAB_fMRI,297626,12345,43152,1,30,30,B2,glasses,3,7&,5688.8516095,6011.8646193,323.0130098,0,0
1561,2@,1,31,61,41,22,52,11,Abstract_Concrete_6tasks_simseq_2seq_listtask_switchAB_fMRI,297626,12345,43152,1,31,31,A1,helmet,1,2@,5688.8516095,6022.8633102,334.0117007,0,0
2818,3#,0,31,62,41,22,52,12,Abstract_Concrete_6tasks_simseq_2seq_listtask_switchAB_fMRI,297626,12345,43152,1,32,32,B2,glasses,3,7&,5688.8516095,6031.8627833,343.0111738,6034.6936693,345.842059799999
2740,4$,1,32,62,42,21,52,11,Abstract_Concrete_6tasks_simseq_2seq_listtask_switchAB_fMRI,297626,12345,43152,1,33,33,A2,vest,2,4$,5688.8516095,6041.8620118,353.010402299999,0,0
1850,3#,1,32,61,42,21,52,12,Abstract_Concrete_6tasks_simseq_2seq_listtask_switchAB_fMRI,297626,12345,43152,1,34,34,B1,weapon,5,3#,5688.8516095,6051.8627494,363.0111399,0,0
4228,8*,1,32,62,41,21,51,11,Abstract_Concrete_6tasks_simseq_2seq_listtask_switchAB_fMRI,297626,12345,43152,1,35,35,A5,tools,6,8*,5688.8516095,6060.8630337,372.0114242,0,0
7011,8*,1,31,62,42,21,51,12,Abstract_Concrete_6tasks_simseq_2seq_listtask_switchAB_fMRI,297626,12345,43152,1,36,36,B4,tools,6,8*,5688.8516095,6072.8626643,384.011054799999,0,0
6763,8*,0,32,61,41,21,51,11,Abstract_Concrete_6tasks_simseq_2seq_listtask_switchAB_fMRI,297626,12345,43152,1,37,37,A4,weapon,5,3#,5688.8516095,6087.8633889,399.0117794,6094.6418687,405.790259199999
3588,4$,1,32,62,41,22,51,12,Abstract_Concrete_6tasks_simseq_2seq_listtask_switchAB_fMRI,297626,12345,43152,1,38,38,B5,vest,2,4$,5688.8516095,6101.8619736,413.0103641,0,0
1747,2@,1,31,61,42,21,52,12,Abstract_Concrete_6tasks_simseq_2seq_listtask_switchAB_fMRI,297626,12345,43152,1,39,39,A1,helmet,1,2@,5688.8516095,6112.8636933,424.012083799999,0,0
3200,3#,0,31,61,42,21,52,12,Abstract_Concrete_6tasks_simseq_2seq_listtask_switchAB_fMRI,297626,12345,43152,1,40,40,B5,vest,2,4$,5688.8516095,6121.8627659,433.0111564,6125.0740618,436.2224523
5555,3#,0,31,62,42,21,51,12,Abstract_Concrete_6tasks_simseq_2seq_listtask_switchAB_fMRI,297626,12345,43152,2,1,41,A5,tools,6,8*,6200.0002168,6208.0094508,8.00923400000011,6213.5870249,13.5868080999999
5627,2@,1,32,62,42,21,52,12,Abstract_Concrete_6tasks_simseq_2seq_listtask_switchAB_fMRI,297626,12345,43152,2,2,42,B3,helmet,1,2@,6200.0002168,6221.0106946,21.0104777999995,0,0
6171,8*,1,31,62,41,22,52,11,Abstract_Concrete_6tasks_simseq_2seq_listtask_switchAB_fMRI,297626,12345,43152,2,3,43,A5,tools,6,8*,6200.0002168,6234.0128826,34.0126657999999,0,0
4761,2@,1,31,62,42,21,52,11,Abstract_Concrete_6tasks_simseq_2seq_listtask_switchAB_fMRI,297626,12345,43152,2,4,44,B3,helmet,1,2@,6200.0002168,6248.0136878,48.0134710000002,0,0
2365,2@,1,31,62,42,22,52,11,Abstract_Concrete_6tasks_simseq_2seq_listtask_switchAB_fMRI,297626,12345,43152,2,5,45,A1,helmet,1,2@,6200.0002168,6260.0137268,60.0135099999998,0,0
4165,4$,1,31,61,42,22,52,11,Abstract_Concrete_6tasks_simseq_2seq_listtask_switchAB_fMRI,297626,12345,43152,2,6,46,B5,vest,2,4$,6200.0002168,6270.0146442,70.0144273999995,0,0
3351,4$,1,31,62,42,21,51,12,Abstract_Concrete_6tasks_simseq_2seq_listtask_switchAB_fMRI,297626,12345,43152,2,7,47,A2,vest,2,4$,6200.0002168,6282.0118215,82.0116047000001,0,0
6360,7&,0,32,61,41,21,51,11,Abstract_Concrete_6tasks_simseq_2seq_listtask_switchAB_fMRI,297626,12345,43152,2,8,48,B4,tools,6,8*,6200.0002168,6293.0127813,93.0125644999998,6299.3891664,99.3889496000002
5487,3#,1,31,61,42,22,51,11,Abstract_Concrete_6tasks_simseq_2seq_listtask_switchAB_fMRI,297626,12345,43152,2,9,49,A4,weapon,5,3#,6200.0002168,6307.011865,107.0116482,0,0
4786,8*,1,31,61,41,22,51,11,Abstract_Concrete_6tasks_simseq_2seq_listtask_switchAB_fMRI,297626,12345,43152,2,10,50,B4,tools,6,8*,6200.0002168,6320.0124806,120.0122638,0,0
2542,4$,1,31,62,41,22,52,12,Abstract_Concrete_6tasks_simseq_2seq_listtask_switchAB_fMRI,297626,12345,43152,2,11,51,A2,vest,2,4$,6200.0002168,6332.0124916,132.0122748,0,0
3632,7&,1,31,61,41,22,52,12,Abstract_Concrete_6tasks_simseq_2seq_listtask_switchAB_fMRI,297626,12345,43152,2,12,52,B2,glasses,3,7&,6200.0002168,6342.0139855,142.0137687,0,0
5249,7&,1,32,62,41,21,51,12,Abstract_Concrete_6tasks_simseq_2seq_listtask_switchAB_fMRI,297626,12345,43152,2,13,53,A3,glasses,3,7&,6200.0002168,6353.0130002,153.0127834,0,0
3342,3#,1,32,61,42,21,51,11,Abstract_Concrete_6tasks_simseq_2seq_listtask_switchAB_fMRI,297626,12345,43152,2,14,54,B1,weapon,5,3#,6200.0002168,6366.0126783,166.0124615,0,0
2834,7&,1,32,61,42,22,51,12,Abstract_Concrete_6tasks_simseq_2seq_listtask_switchAB_fMRI,297626,12345,43152,2,15,55,A3,glasses,3,7&,6200.0002168,6377.0139286,177.0137118,0,0
3134,4$,1,31,62,42,22,52,12,Abstract_Concrete_6tasks_simseq_2seq_listtask_switchAB_fMRI,297626,12345,43152,2,16,56,B5,vest,2,4$,6200.0002168,6387.0134373,187.0132205,0,0
2477,7&,1,31,62,41,22,52,12,Abstract_Concrete_6tasks_simseq_2seq_listtask_switchAB_fMRI,297626,12345,43152,2,17,57,A3,glasses,3,7&,6200.0002168,6398.0137269,198.0135101,0,0
4761,3#,1,31,62,42,22,52,11,Abstract_Concrete_6tasks_simseq_2seq_listtask_switchAB_fMRI,297626,12345,43152,2,18,58,B1,weapon,5,3#,6200.0002168,6408.0144364,208.0142196,0,0
3204,2@,1,31,61,42,21,51,12,Abstract_Concrete_6tasks_simseq_2seq_listtask_switchAB_fMRI,297626,12345,43152,2,19,59,A1,helmet,1,2@,6200.0002168,6420.0114275,220.0112107,0,0
4505,2@,1,32,62,42,22,51,12,Abstract_Concrete_6tasks_simseq_2seq_listtask_switchAB_fMRI,297626,12345,43152,2,20,60,B3,helmet,1,2@,6200.0002168,6431.0132135,231.0129967,0,0
3292,8*,0,32,61,41,21,52,12,Abstract_Concrete_6tasks_simseq_2seq_listtask_switchAB_fMRI,297626,12345,43152,2,21,61,A4,weapon,5,3#,6200.0002168,6443.0109292,243.0107124,6446.3150262,246.3148094
5237,2@,1,32,61,42,22,52,11,Abstract_Concrete_6tasks_simseq_2seq_listtask_switchAB_fMRI,297626,12345,43152,2,22,62,B3,helmet,1,2@,6200.0002168,6454.0104122,254.0101954,0,0
2974,8*,0,31,61,41,22,51,11,Abstract_Concrete_6tasks_simseq_2seq_listtask_switchAB_fMRI,297626,12345,43152,2,23,63,A3,glasses,3,7&,6200.0002168,6467.014124,267.0139072,6469.9988339,269.9986171
2666,4$,1,32,62,42,22,52,11,Abstract_Concrete_6tasks_simseq_2seq_listtask_switchAB_fMRI,297626,12345,43152,2,24,64,B5,vest,2,4$,6200.0002168,6477.0094203,277.0092035,0,0
2599,4$,1,32,62,41,21,52,11,Abstract_Concrete_6tasks_simseq_2seq_listtask_switchAB_fMRI,297626,12345,43152,2,25,65,A2,vest,2,4$,6200.0002168,6487.0117997,287.0115829,0,0
4214,7&,1,32,62,42,21,52,12,Abstract_Concrete_6tasks_simseq_2seq_listtask_switchAB_fMRI,297626,12345,43152,2,26,66,B2,glasses,3,7&,6200.0002168,6497.0123159,297.0120991,0,0
4981,2@,0,31,61,42,21,51,11,Abstract_Concrete_6tasks_simseq_2seq_listtask_switchAB_fMRI,297626,12345,43152,2,27,67,A4,weapon,5,3#,6200.0002168,6509.0137977,309.0135809,6514.009508,314.0092912
3660,7&,1,31,62,42,22,52,11,Abstract_Concrete_6tasks_simseq_2seq_listtask_switchAB_fMRI,297626,12345,43152,2,28,68,B2,glasses,3,7&,6200.0002168,6522.0115165,322.0112997,0,0
2117,2@,1,32,62,42,22,51,12,Abstract_Concrete_6tasks_simseq_2seq_listtask_switchAB_fMRI,297626,12345,43152,2,29,69,A1,helmet,1,2@,6200.0002168,6533.0119326,333.0117158,0,0
5269,8*,1,32,62,42,21,51,11,Abstract_Concrete_6tasks_simseq_2seq_listtask_switchAB_fMRI,297626,12345,43152,2,30,70,B4,tools,6,8*,6200.0002168,6543.0129294,343.0127126,0,0
3899,3#,1,32,62,42,21,51,12,Abstract_Concrete_6tasks_simseq_2seq_listtask_switchAB_fMRI,297626,12345,43152,2,31,71,A4,weapon,5,3#,6200.0002168,6556.013921,356.0137042,0,0
2594,7&,1,32,62,42,22,51,11,Abstract_Concrete_6tasks_simseq_2seq_listtask_switchAB_fMRI,297626,12345,43152,2,32,72,B2,glasses,3,7&,6200.0002168,6567.0106452,367.0104284,0,0
3203,8*,1,32,61,42,22,51,12,Abstract_Concrete_6tasks_simseq_2seq_listtask_switchAB_fMRI,297626,12345,43152,2,33,73,A5,tools,6,8*,6200.0002168,6577.0130897,377.0128729,0,0
2132,3#,1,32,61,42,22,51,12,Abstract_Concrete_6tasks_simseq_2seq_listtask_switchAB_fMRI,297626,12345,43152,2,34,74,B1,weapon,5,3#,6200.0002168,6588.0128765,388.0126597,0,0
2085,4$,1,32,61,42,21,52,11,Abstract_Concrete_6tasks_simseq_2seq_listtask_switchAB_fMRI,297626,12345,43152,2,35,75,A2,vest,2,4$,6200.0002168,6598.0123628,398.012146,0,0
4867,4$,1,31,62,42,21,51,11,Abstract_Concrete_6tasks_simseq_2seq_listtask_switchAB_fMRI,297626,12345,43152,2,36,76,B5,vest,2,4$,6200.0002168,6608.0122874,408.0120706,0,0
3848,8*,1,32,62,41,21,51,11,Abstract_Concrete_6tasks_simseq_2seq_listtask_switchAB_fMRI,297626,12345,43152,2,37,77,A5,tools,6,8*,6200.0002168,6620.0115389,420.0113221,0,0
3960,8*,1,31,62,42,21,52,11,Abstract_Concrete_6tasks_simseq_2seq_listtask_switchAB_fMRI,297626,12345,43152,2,38,78,B4,tools,6,8*,6200.0002168,6631.0118551,431.0116383,0,0
1565,2@,1,32,61,42,21,51,12,Abstract_Concrete_6tasks_simseq_2seq_listtask_switchAB_fMRI,297626,12345,43152,2,39,79,A1,helmet,1,2@,6200.0002168,6642.010685,442.0104682,0,0
1579,3#,1,32,61,42,21,52,12,Abstract_Concrete_6tasks_simseq_2seq_listtask_switchAB_fMRI,297626,12345,43152,2,40,80,B1,weapon,5,3#,6200.0002168,6651.0120711,451.0118543,0,0
3921,4$,1,32,62,42,22,51,11,Abstract_Concrete_6tasks_simseq_2seq_listtask_switchAB_fMRI,297626,12345,43152,3,1,81,A2,vest,2,4$,6718.7140827,6726.72280265767,8.00871995767193,0,0
2855,7&,1,32,62,42,21,52,11,Abstract_Concrete_6tasks_simseq_2seq_listtask_switchAB_fMRI,297626,12345,43152,3,2,82,B2,glasses,3,7&,6718.7140827,6737.72234790571,19.0082652057063,0,0
2822,8*,0,31,61,41,21,52,11,Abstract_Concrete_6tasks_simseq_2seq_listtask_switchAB_fMRI,297626,12345,43152,3,3,83,A4,weapon,5,3#,6718.7140827,6747.72193527638,29.0078525763793,6750.5626725,31.8485897999999
5378,8*,1,32,62,42,21,51,11,Abstract_Concrete_6tasks_simseq_2seq_listtask_switchAB_fMRI,297626,12345,43152,3,4,84,B4,tools,6,8*,6718.7140827,6757.7239641,39.0098813999994,0,0
3274,3#,1,32,62,42,21,51,11,Abstract_Concrete_6tasks_simseq_2seq_listtask_switchAB_fMRI,297626,12345,43152,3,5,85,A4,weapon,5,3#,6718.7140827,6770.7261696,52.0120868999993,0,0
2151,3#,1,32,62,42,22,51,11,Abstract_Concrete_6tasks_simseq_2seq_listtask_switchAB_fMRI,297626,12345,43152,3,6,86,B1,weapon,5,3#,6718.7140827,6781.7264521,63.0123693999994,0,0
3831,7&,1,32,62,41,21,52,11,Abstract_Concrete_6tasks_simseq_2seq_listtask_switchAB_fMRI,297626,12345,43152,3,7,87,A3,glasses,3,7&,6718.7140827,6791.7261592,73.0120765000001,0,0
1841,3#,1,31,62,41,22,51,11,Abstract_Concrete_6tasks_simseq_2seq_listtask_switchAB_fMRI,297626,12345,43152,3,8,88,B1,weapon,5,3#,6718.7140827,6802.7450692,84.0309864999999,0,0
4384,8*,1,31,61,42,21,52,11,Abstract_Concrete_6tasks_simseq_2seq_listtask_switchAB_fMRI,297626,12345,43152,3,9,89,A5,tools,6,8*,6718.7140827,6811.7247189,93.0106361999997,0,0
2815,2@,1,31,62,42,21,51,12,Abstract_Concrete_6tasks_simseq_2seq_listtask_switchAB_fMRI,297626,12345,43152,3,10,90,B3,helmet,1,2@,6718.7140827,6823.72543,105.0113473,0,0
3671,4$,1,31,62,41,21,52,12,Abstract_Concrete_6tasks_simseq_2seq_listtask_switchAB_fMRI,297626,12345,43152,3,11,91,A2,vest,2,4$,6718.7140827,6833.7269193,115.0128366,0,0
4618,8*,0,32,61,41,22,51,12,Abstract_Concrete_6tasks_simseq_2seq_listtask_switchAB_fMRI,297626,12345,43152,3,12,92,B3,helmet,1,2@,6718.7140827,6844.7261112,126.012028499999,6849.359306,130.6452233
3419,7&,1,31,61,42,21,52,11,Abstract_Concrete_6tasks_simseq_2seq_listtask_switchAB_fMRI,297626,12345,43152,3,13,93,A3,glasses,3,7&,6718.7140827,6856.7255926,138.0115099,0,0
4428,8*,1,31,62,42,21,52,11,Abstract_Concrete_6tasks_simseq_2seq_listtask_switchAB_fMRI,297626,12345,43152,3,14,94,B4,tools,6,8*,6718.7140827,6867.72516,149.0110773,0,0
2898,3#,1,31,61,42,22,51,12,Abstract_Concrete_6tasks_simseq_2seq_listtask_switchAB_fMRI,297626,12345,43152,3,15,95,A4,weapon,5,3#,6718.7140827,6879.7256928,161.011610099999,0,0
4035,2@,1,31,61,41,22,52,11,Abstract_Concrete_6tasks_simseq_2seq_listtask_switchAB_fMRI,297626,12345,43152,3,16,96,B3,helmet,1,2@,6718.7140827,6889.7259875,171.0119048,0,0
1245,2@,1,32,62,42,22,52,12,Abstract_Concrete_6tasks_simseq_2seq_listtask_switchAB_fMRI,297626,12345,43152,3,17,97,A1,helmet,1,2@,6718.7140827,6901.7259379,183.011855199999,0,0
4131,8*,1,32,62,42,21,52,11,Abstract_Concrete_6tasks_simseq_2seq_listtask_switchAB_fMRI,297626,12345,43152,3,18,98,B4,tools,6,8*,6718.7140827,6910.7276281,192.0135454,0,0
2058,4$,1,32,62,41,22,52,12,Abstract_Concrete_6tasks_simseq_2seq_listtask_switchAB_fMRI,297626,12345,43152,3,19,99,A2,vest,2,4$,6718.7140827,6922.7270685,204.0129858,0,0
2710,4$,1,32,62,42,22,51,11,Abstract_Concrete_6tasks_simseq_2seq_listtask_switchAB_fMRI,297626,12345,43152,3,20,100,B5,vest,2,4$,6718.7140827,6932.7273334,214.0132507,0,0
3424,8*,1,31,62,41,21,52,11,Abstract_Concrete_6tasks_simseq_2seq_listtask_switchAB_fMRI,297626,12345,43152,3,21,101,A5,tools,6,8*,6718.7140827,6942.7279368,224.0138541,0,0
2234,3#,1,32,61,42,22,52,11,Abstract_Concrete_6tasks_simseq_2seq_listtask_switchAB_fMRI,297626,12345,43152,3,22,102,B1,weapon,5,3#,6718.7140827,6953.726391,235.0123083,0,0
2325,7&,1,31,61,42,21,52,12,Abstract_Concrete_6tasks_simseq_2seq_listtask_switchAB_fMRI,297626,12345,43152,3,23,103,A3,glasses,3,7&,6718.7140827,6963.7259115,245.011828799999,0,0
1881,8*,1,32,61,41,22,51,12,Abstract_Concrete_6tasks_simseq_2seq_listtask_switchAB_fMRI,297626,12345,43152,3,24,104,B4,tools,6,8*,6718.7140827,6973.7261215,255.0120388,0,0
3208,3#,1,31,62,41,22,52,12,Abstract_Concrete_6tasks_simseq_2seq_listtask_switchAB_fMRI,297626,12345,43152,3,25,105,A4,weapon,5,3#,6718.7140827,6982.7273636,264.0132809,0,0
2601,4$,1,31,61,42,22,52,11,Abstract_Concrete_6tasks_simseq_2seq_listtask_switchAB_fMRI,297626,12345,43152,3,26,106,B5,vest,2,4$,6718.7140827,6993.726391,275.0123083,0,0
4456,4$,1,31,62,41,21,51,11,Abstract_Concrete_6tasks_simseq_2seq_listtask_switchAB_fMRI,297626,12345,43152,3,27,107,A2,vest,2,4$,6718.7140827,7003.727303,285.013220299999,0,0
2113,4$,1,31,62,42,22,51,12,Abstract_Concrete_6tasks_simseq_2seq_listtask_switchAB_fMRI,297626,12345,43152,3,28,108,B5,vest,2,4$,6718.7140827,7015.7248239,297.0107412,0,0
3547,8*,1,31,61,41,22,51,11,Abstract_Concrete_6tasks_simseq_2seq_listtask_switchAB_fMRI,297626,12345,43152,3,29,109,A5,tools,6,8*,6718.7140827,7025.7274194,307.0133367,0,0
2112,3#,1,32,62,42,22,51,11,Abstract_Concrete_6tasks_simseq_2seq_listtask_switchAB_fMRI,297626,12345,43152,3,30,110,B1,weapon,5,3#,6718.7140827,7036.7268896,318.012806899999,0,0
1458,2@,1,32,61,41,21,52,12,Abstract_Concrete_6tasks_simseq_2seq_listtask_switchAB_fMRI,297626,12345,43152,3,31,111,A1,helmet,1,2@,6718.7140827,7046.7256603,328.011577599999,0,0
2557,4$,1,32,61,42,21,52,11,Abstract_Concrete_6tasks_simseq_2seq_listtask_switchAB_fMRI,297626,12345,43152,3,32,112,B5,vest,2,4$,6718.7140827,7055.7253868,337.0113041,0,0
1102,2@,1,32,61,42,22,52,12,Abstract_Concrete_6tasks_simseq_2seq_listtask_switchAB_fMRI,297626,12345,43152,3,33,113,A1,helmet,1,2@,6718.7140827,7065.7248839,347.0108012,0,0
2574,7&,1,31,61,41,22,52,12,Abstract_Concrete_6tasks_simseq_2seq_listtask_switchAB_fMRI,297626,12345,43152,3,34,114,B2,glasses,3,7&,6718.7140827,7074.7259881,356.0119054,0,0
1035,2@,1,32,61,42,21,51,12,Abstract_Concrete_6tasks_simseq_2seq_listtask_switchAB_fMRI,297626,12345,43152,3,35,115,A1,helmet,1,2@,6718.7140827,7084.7252772,366.0111945,0,0
2792,7&,0,31,62,41,22,51,11,Abstract_Concrete_6tasks_simseq_2seq_listtask_switchAB_fMRI,297626,12345,43152,3,36,116,B3,helmet,1,2@,6718.7140827,7093.7270475,375.012964799999,7096.5303693,377.816286599999
3435,7&,1,32,62,42,21,51,12,Abstract_Concrete_6tasks_simseq_2seq_listtask_switchAB_fMRI,297626,12345,43152,3,37,117,A3,glasses,3,7&,6718.7140827,7103.7242675,385.010184799999,0,0
5919,7&,1,31,61,42,21,51,11,Abstract_Concrete_6tasks_simseq_2seq_listtask_switchAB_fMRI,297626,12345,43152,3,38,118,B2,glasses,3,7&,6718.7140827,7114.725766,396.011683299999,0,0
4473,8*,1,32,62,41,21,52,11,Abstract_Concrete_6tasks_simseq_2seq_listtask_switchAB_fMRI,297626,12345,43152,3,39,119,A5,tools,6,8*,6718.7140827,7127.7255324,409.0114497,0,0
4198,7&,1,31,61,42,22,51,12,Abstract_Concrete_6tasks_simseq_2seq_listtask_switchAB_fMRI,297626,12345,43152,3,40,120,B2,glasses,3,7&,6718.7140827,7139.7254917,421.011409,0,0
2067,2@,1,31,61,42,22,51,12,Abstract_Concrete_6tasks_simseq_2seq_listtask_switchAB_fMRI,297626,12345,43152,4,1,121,A1,helmet,1,2@,7202.5866609,7210.59704316979,8.01038226979108,0,0
1266,3#,1,31,62,42,21,51,11,Abstract_Concrete_6tasks_simseq_2seq_listtask_switchAB_fMRI,297626,12345,43152,4,2,122,B1,weapon,5,3#,7202.5866609,7220.59653151025,18.0098706102463,0,0
3213,7&,1,32,61,41,21,52,11,Abstract_Concrete_6tasks_simseq_2seq_listtask_switchAB_fMRI,297626,12345,43152,4,3,123,A3,glasses,3,7&,7202.5866609,7229.5992227,27.0125617999993,0,0
2548,4$,1,32,62,42,22,52,11,Abstract_Concrete_6tasks_simseq_2seq_listtask_switchAB_fMRI,297626,12345,43152,4,4,124,B5,vest,2,4$,7202.5866609,7240.599203,38.0125420999993,0,0
1783,4$,0,32,61,42,21,51,12,Abstract_Concrete_6tasks_simseq_2seq_listtask_switchAB_fMRI,297626,12345,43152,4,5,125,A5,tools,6,8*,7202.5866609,7250.5968624,48.0102014999993,7252.3987515,49.8120905999995
5041,7&,1,32,61,41,21,51,11,Abstract_Concrete_6tasks_simseq_2seq_listtask_switchAB_fMRI,297626,12345,43152,4,6,126,B2,glasses,3,7&,7202.5866609,7259.5959568,57.0092958999994,0,0
2988,4$,1,31,61,42,21,51,11,Abstract_Concrete_6tasks_simseq_2seq_listtask_switchAB_fMRI,297626,12345,43152,4,7,127,A2,vest,2,4$,7202.5866609,7272.5974022,70.0107412999996,0,0
3887,8*,1,31,61,41,22,51,12,Abstract_Concrete_6tasks_simseq_2seq_listtask_switchAB_fMRI,297626,12345,43152,4,8,128,B4,tools,6,8*,7202.5866609,7283.5968531,81.0101921999994,0,0
6723,3#,1,31,61,41,21,51,11,Abstract_Concrete_6tasks_simseq_2seq_listtask_switchAB_fMRI,297626,12345,43152,4,9,129,A4,weapon,5,3#,7202.5866609,7294.598307,92.0116460999998,0,0
2796,7&,1,31,61,41,22,52,12,Abstract_Concrete_6tasks_simseq_2seq_listtask_switchAB_fMRI,297626,12345,43152,4,10,130,B2,glasses,3,7&,7202.5866609,7308.598716,106.0120551,0,0
3404,3#,1,32,61,41,22,52,12,Abstract_Concrete_6tasks_simseq_2seq_listtask_switchAB_fMRI,297626,12345,43152,4,11,131,A4,weapon,5,3#,7202.5866609,7318.598273,116.011612099999,0,0
3196,8*,0,32,62,42,22,52,12,Abstract_Concrete_6tasks_simseq_2seq_listtask_switchAB_fMRI,297626,12345,43152,4,12,132,B5,vest,2,4$,7202.5866609,7329.597771,127.011110099999,7332.8058651,130.2192042
3037,8*,1,32,61,41,22,51,11,Abstract_Concrete_6tasks_simseq_2seq_listtask_switchAB_fMRI,297626,12345,43152,4,13,133,A5,tools,6,8*,7202.5866609,7340.597729,138.0110681,0,0
5477,7&,1,31,61,41,21,51,12,Abstract_Concrete_6tasks_simseq_2seq_listtask_switchAB_fMRI,297626,12345,43152,4,14,134,B2,glasses,3,7&,7202.5866609,7351.5985624,149.0119015,0,0
3917,3#,1,32,62,42,21,51,11,Abstract_Concrete_6tasks_simseq_2seq_listtask_switchAB_fMRI,297626,12345,43152,4,15,135,A4,weapon,5,3#,7202.5866609,7364.5990856,162.012424699999,0,0
4923,2@,1,32,61,42,21,51,11,Abstract_Concrete_6tasks_simseq_2seq_listtask_switchAB_fMRI,297626,12345,43152,4,16,136,B3,helmet,1,2@,7202.5866609,7375.5986386,173.0119777,0,0
4057,3#,1,31,61,41,22,52,12,Abstract_Concrete_6tasks_simseq_2seq_listtask_switchAB_fMRI,297626,12345,43152,4,17,137,A4,weapon,5,3#,7202.5866609,7387.5979474,185.011286499999,0,0
1483,3#,1,32,62,41,21,51,11,Abstract_Concrete_6tasks_simseq_2seq_listtask_switchAB_fMRI,297626,12345,43152,4,18,138,B1,weapon,5,3#,7202.5866609,7399.5985661,197.0119052,0,0
3316,8*,1,31,61,41,22,52,12,Abstract_Concrete_6tasks_simseq_2seq_listtask_switchAB_fMRI,297626,12345,43152,4,19,139,A5,tools,6,8*,7202.5866609,7408.5983728,206.0117119,0,0
1834,3#,1,31,62,41,21,51,12,Abstract_Concrete_6tasks_simseq_2seq_listtask_switchAB_fMRI,297626,12345,43152,4,20,140,B1,weapon,5,3#,7202.5866609,7419.5982746,217.0116137,0,0
3011,2@,1,32,62,41,22,51,12,Abstract_Concrete_6tasks_simseq_2seq_listtask_switchAB_fMRI,297626,12345,43152,4,21,141,A1,helmet,1,2@,7202.5866609,7428.5983138,226.0116529,0,0
5024,8*,1,31,62,42,22,52,12,Abstract_Concrete_6tasks_simseq_2seq_listtask_switchAB_fMRI,297626,12345,43152,4,22,142,B4,tools,6,8*,7202.5866609,7439.5993472,237.0126863,0,0
1370,2@,1,32,61,41,21,52,11,Abstract_Concrete_6tasks_simseq_2seq_listtask_switchAB_fMRI,297626,12345,43152,4,23,143,A1,helmet,1,2@,7202.5866609,7452.5991683,250.0125074,0,0
4059,7&,1,32,61,42,22,51,12,Abstract_Concrete_6tasks_simseq_2seq_listtask_switchAB_fMRI,297626,12345,43152,4,24,144,B2,glasses,3,7&,7202.5866609,7461.5992653,259.0126044,0,0
3174,4$,1,32,62,42,22,51,11,Abstract_Concrete_6tasks_simseq_2seq_listtask_switchAB_fMRI,297626,12345,43152,4,25,145,A2,vest,2,4$,7202.5866609,7473.5988941,271.012233199999,0,0
2976,3#,0,31,62,42,22,51,11,Abstract_Concrete_6tasks_simseq_2seq_listtask_switchAB_fMRI,297626,12345,43152,4,26,146,B4,tools,6,8*,7202.5866609,7484.598318,282.0116571,7487.586136,284.999475099999
3198,4$,1,31,61,41,22,51,11,Abstract_Concrete_6tasks_simseq_2seq_listtask_switchAB_fMRI,297626,12345,43152,4,27,147,A2,vest,2,4$,7202.5866609,7495.5980843,293.011423399999,0,0
6009,4$,1,31,62,42,21,52,12,Abstract_Concrete_6tasks_simseq_2seq_listtask_switchAB_fMRI,297626,12345,43152,4,28,148,B5,vest,2,4$,7202.5866609,7506.5998267,304.0131658,0,0
0,,0,31,61,41,21,52,12,Abstract_Concrete_6tasks_simseq_2seq_listtask_switchAB_fMRI,297626,12345,43152,4,29,149,A3,glasses,3,7&,7202.5866609,7520.5986567,318.0119958,7529.6264302,327.0397693
4788,2@,1,32,62,42,22,52,12,Abstract_Concrete_6tasks_simseq_2seq_listtask_switchAB_fMRI,297626,12345,43152,4,30,150,B3,helmet,1,2@,7202.5866609,7537.5981864,335.011525499999,0,0
2266,2@,1,31,61,42,22,52,11,Abstract_Concrete_6tasks_simseq_2seq_listtask_switchAB_fMRI,297626,12345,43152,4,31,151,A1,helmet,1,2@,7202.5866609,7549.5991249,347.012463999999,0,0
4067,3#,1,32,62,42,22,52,12,Abstract_Concrete_6tasks_simseq_2seq_listtask_switchAB_fMRI,297626,12345,43152,4,32,152,B1,weapon,5,3#,7202.5866609,7559.599594,357.0129331,0,0
4063,7&,1,31,62,42,22,51,11,Abstract_Concrete_6tasks_simseq_2seq_listtask_switchAB_fMRI,297626,12345,43152,4,33,153,A3,glasses,3,7&,7202.5866609,7571.599629,369.0129681,0,0
4331,2@,1,31,61,41,21,52,11,Abstract_Concrete_6tasks_simseq_2seq_listtask_switchAB_fMRI,297626,12345,43152,4,34,154,B3,helmet,1,2@,7202.5866609,7583.597857,381.011196099999,0,0
3999,8*,1,31,62,42,22,52,12,Abstract_Concrete_6tasks_simseq_2seq_listtask_switchAB_fMRI,297626,12345,43152,4,35,155,A5,tools,6,8*,7202.5866609,7595.5995098,393.0128489,0,0
4728,8*,1,31,62,42,22,52,12,Abstract_Concrete_6tasks_simseq_2seq_listtask_switchAB_fMRI,297626,12345,43152,4,36,156,B4,tools,6,8*,7202.5866609,7607.5978515,405.011190599999,0,0
2791,4$,1,31,61,41,22,51,12,Abstract_Concrete_6tasks_simseq_2seq_listtask_switchAB_fMRI,297626,12345,43152,4,37,157,A2,vest,2,4$,7202.5866609,7619.5998,417.0131391,0,0
4180,2@,1,32,62,42,22,51,12,Abstract_Concrete_6tasks_simseq_2seq_listtask_switchAB_fMRI,297626,12345,43152,4,38,158,B3,helmet,1,2@,7202.5866609,7629.5973911,427.0107302,0,0
4271,7&,1,32,61,41,22,51,11,Abstract_Concrete_6tasks_simseq_2seq_listtask_switchAB_fMRI,297626,12345,43152,4,39,159,A3,glasses,3,7&,7202.5866609,7641.5984895,439.0118286,0,0
4647,4$,1,31,61,41,22,51,12,Abstract_Concrete_6tasks_simseq_2seq_listtask_switchAB_fMRI,297626,12345,43152,4,40,160,B5,vest,2,4$,7202.5866609,7653.5997759,451.013115,0,0
3643,3#,1,31,62,42,21,52,12,Abstract_Concrete_6tasks_simseq_2seq_listtask_switchAB_fMRI,297626,12345,43152,5,1,161,A4,weapon,5,3#,7811.9189773,7819.9406125,8.02163519999976,0,0
4248,7&,1,31,61,41,21,51,12,Abstract_Concrete_6tasks_simseq_2seq_listtask_switchAB_fMRI,297626,12345,43152,5,2,162,B2,glasses,3,7&,7811.9189773,7830.9380749,19.0190976000004,0,0
2748,4$,1,31,62,42,21,52,11,Abstract_Concrete_6tasks_simseq_2seq_listtask_switchAB_fMRI,297626,12345,43152,5,3,163,A2,vest,2,4$,7811.9189773,7842.9403319,31.0213546000004,0,0
4203,4$,1,31,61,42,22,51,11,Abstract_Concrete_6tasks_simseq_2seq_listtask_switchAB_fMRI,297626,12345,43152,5,4,164,B5,vest,2,4$,7811.9189773,7852.9380953,41.0191180000002,0,0
4510,4$,1,31,62,42,21,51,11,Abstract_Concrete_6tasks_simseq_2seq_listtask_switchAB_fMRI,297626,12345,43152,5,5,165,A2,vest,2,4$,7811.9189773,7864.9385413,53.0195640000002,0,0
2700,4$,1,31,62,42,22,52,11,Abstract_Concrete_6tasks_simseq_2seq_listtask_switchAB_fMRI,297626,12345,43152,5,6,166,B5,vest,2,4$,7811.9189773,7876.9402324,65.0212551000004,0,0
2951,3#,1,32,61,41,21,52,12,Abstract_Concrete_6tasks_simseq_2seq_listtask_switchAB_fMRI,297626,12345,43152,5,7,167,A4,weapon,5,3#,7811.9189773,7886.9400194,75.0210421000002,0,0
4446,2@,1,31,62,42,22,52,11,Abstract_Concrete_6tasks_simseq_2seq_listtask_switchAB_fMRI,297626,12345,43152,5,8,168,B3,helmet,1,2@,7811.9189773,7896.938229,85.0192517000005,0,0
2885,2@,1,31,62,41,22,51,12,Abstract_Concrete_6tasks_simseq_2seq_listtask_switchAB_fMRI,297626,12345,43152,5,9,169,A1,helmet,1,2@,7811.9189773,7908.9406913,97.0217140000004,0,0
3467,7&,1,32,62,42,21,52,11,Abstract_Concrete_6tasks_simseq_2seq_listtask_switchAB_fMRI,297626,12345,43152,5,10,170,B2,glasses,3,7&,7811.9189773,7918.9424314,107.0234541,0,0
1286,2@,1,32,62,42,22,52,11,Abstract_Concrete_6tasks_simseq_2seq_listtask_switchAB_fMRI,297626,12345,43152,5,11,171,A1,helmet,1,2@,7811.9189773,7929.9386247,118.0196474,0,0
4951,2@,1,31,61,42,22,52,11,Abstract_Concrete_6tasks_simseq_2seq_listtask_switchAB_fMRI,297626,12345,43152,5,12,172,B3,helmet,1,2@,7811.9189773,7938.9412434,127.0222661,0,0
4342,7&,1,31,61,41,22,52,12,Abstract_Concrete_6tasks_simseq_2seq_listtask_switchAB_fMRI,297626,12345,43152,5,13,173,A3,glasses,3,7&,7811.9189773,7950.9432552,139.0242779,0,0
2303,3#,1,32,62,42,22,51,11,Abstract_Concrete_6tasks_simseq_2seq_listtask_switchAB_fMRI,297626,12345,43152,5,14,174,B1,weapon,5,3#,7811.9189773,7962.9398698,151.020892500001,0,0
2927,8*,1,32,61,41,21,51,12,Abstract_Concrete_6tasks_simseq_2seq_listtask_switchAB_fMRI,297626,12345,43152,5,15,175,A5,tools,6,8*,7811.9189773,7972.9389902,161.0200129,0,0
1621,3#,1,32,61,41,21,51,11,Abstract_Concrete_6tasks_simseq_2seq_listtask_switchAB_fMRI,297626,12345,43152,5,16,176,B1,weapon,5,3#,7811.9189773,7982.9393266,171.0203493,0,0
7370,8*,1,31,62,42,21,51,11,Abstract_Concrete_6tasks_simseq_2seq_listtask_switchAB_fMRI,297626,12345,43152,5,17,177,A5,tools,6,8*,7811.9189773,7991.941002,180.0220247,0,0
1311,4$,1,32,61,42,21,51,12,Abstract_Concrete_6tasks_simseq_2seq_listtask_switchAB_fMRI,297626,12345,43152,5,18,178,B5,vest,2,4$,7811.9189773,8006.9380976,195.0191203,0,0
5285,7&,1,31,61,42,22,52,12,Abstract_Concrete_6tasks_simseq_2seq_listtask_switchAB_fMRI,297626,12345,43152,5,19,179,A3,glasses,3,7&,7811.9189773,8015.9381512,204.0191739,0,0
5015,8*,1,31,61,41,22,51,11,Abstract_Concrete_6tasks_simseq_2seq_listtask_switchAB_fMRI,297626,12345,43152,5,20,180,B4,tools,6,8*,7811.9189773,8028.9376063,217.018629,0,0
2509,8*,1,32,61,42,21,51,12,Abstract_Concrete_6tasks_simseq_2seq_listtask_switchAB_fMRI,297626,12345,43152,5,21,181,A5,tools,6,8*,7811.9189773,8041.9428929,230.0239156,0,0
4173,7&,1,31,62,42,22,51,11,Abstract_Concrete_6tasks_simseq_2seq_listtask_switchAB_fMRI,297626,12345,43152,5,22,182,B2,glasses,3,7&,7811.9189773,8051.9428278,240.0238505,0,0
2832,8*,1,31,62,42,22,51,12,Abstract_Concrete_6tasks_simseq_2seq_listtask_switchAB_fMRI,297626,12345,43152,5,23,183,A5,tools,6,8*,7811.9189773,8063.9437777,252.0248004,0,0
5755,7&,0,31,61,41,21,52,12,Abstract_Concrete_6tasks_simseq_2seq_listtask_switchAB_fMRI,297626,12345,43152,5,24,184,B4,tools,6,8*,7811.9189773,8073.9445972,262.0256199,8079.7268299,267.8078526
2361,2@,1,31,61,42,22,51,11,Abstract_Concrete_6tasks_simseq_2seq_listtask_switchAB_fMRI,297626,12345,43152,5,25,185,A1,helmet,1,2@,7811.9189773,8086.9401099,275.0211326,0,0
8939,2@,1,31,61,41,22,52,11,Abstract_Concrete_6tasks_simseq_2seq_listtask_switchAB_fMRI,297626,12345,43152,5,26,186,B3,helmet,1,2@,7811.9189773,8096.9405666,285.0215893,0,0
3305,4$,1,32,62,42,22,51,12,Abstract_Concrete_6tasks_simseq_2seq_listtask_switchAB_fMRI,297626,12345,43152,5,27,187,A2,vest,2,4$,7811.9189773,8112.9404517,301.0214744,0,0
2985,3#,1,31,61,42,21,51,11,Abstract_Concrete_6tasks_simseq_2seq_listtask_switchAB_fMRI,297626,12345,43152,5,28,188,B1,weapon,5,3#,7811.9189773,8123.9410753,312.022098,0,0
3135,4$,1,32,61,42,21,51,11,Abstract_Concrete_6tasks_simseq_2seq_listtask_switchAB_fMRI,297626,12345,43152,5,29,189,A2,vest,2,4$,7811.9189773,8134.940704,323.0217267,0,0
3860,8*,1,31,61,42,21,52,12,Abstract_Concrete_6tasks_simseq_2seq_listtask_switchAB_fMRI,297626,12345,43152,5,30,190,B4,tools,6,8*,7811.9189773,8145.9413112,334.0223339,0,0
3006,7&,1,31,62,42,21,52,11,Abstract_Concrete_6tasks_simseq_2seq_listtask_switchAB_fMRI,297626,12345,43152,5,31,191,A3,glasses,3,7&,7811.9189773,8156.9394196,345.0204423,0,0
4564,2@,1,31,61,41,21,52,12,Abstract_Concrete_6tasks_simseq_2seq_listtask_switchAB_fMRI,297626,12345,43152,5,32,192,B3,helmet,1,2@,7811.9189773,8167.9386327,356.0196554,0,0
4305,7&,1,31,61,41,21,51,12,Abstract_Concrete_6tasks_simseq_2seq_listtask_switchAB_fMRI,297626,12345,43152,5,33,193,A3,glasses,3,7&,7811.9189773,8179.9398219,368.020844600001,0,0
4259,3#,0,32,62,41,22,51,12,Abstract_Concrete_6tasks_simseq_2seq_listtask_switchAB_fMRI,297626,12345,43152,5,34,194,B4,tools,6,8*,7811.9189773,8191.9397129,380.0207356,8196.2132024,384.2942251
3296,3#,1,32,62,42,21,52,12,Abstract_Concrete_6tasks_simseq_2seq_listtask_switchAB_fMRI,297626,12345,43152,5,35,195,A4,weapon,5,3#,7811.9189773,8203.9370411,392.0180638,0,0
6843,8*,0,32,62,42,21,51,11,Abstract_Concrete_6tasks_simseq_2seq_listtask_switchAB_fMRI,297626,12345,43152,5,36,196,B5,vest,2,4$,7811.9189773,8214.9381923,403.019215,8221.8049534,409.8859761
2453,3#,1,32,61,42,22,52,11,Abstract_Concrete_6tasks_simseq_2seq_listtask_switchAB_fMRI,297626,12345,43152,5,37,197,A4,weapon,5,3#,7811.9189773,8228.9394244,417.0204471,0,0
2590,7&,1,32,62,42,21,52,11,Abstract_Concrete_6tasks_simseq_2seq_listtask_switchAB_fMRI,297626,12345,43152,5,38,198,B2,glasses,3,7&,7811.9189773,8238.941708,427.0227307,0,0
1296,2@,1,31,61,41,21,51,12,Abstract_Concrete_6tasks_simseq_2seq_listtask_switchAB_fMRI,297626,12345,43152,5,39,199,A1,helmet,1,2@,7811.9189773,8248.9399271,437.0209498,0,0
1233,3#,1,31,62,41,22,51,11,Abstract_Concrete_6tasks_simseq_2seq_listtask_switchAB_fMRI,297626,12345,43152,5,40,200,B1,weapon,5,3#,7811.9189773,8257.9397715,446.0207942,0,0
1855,3#,1,32,62,41,22,52,12,Abstract_Concrete_6tasks_simseq_2seq_listtask_switchAB_fMRI,297626,12345,43152,6,1,201,B1,weapon,5,3#,8328.7289688,8336.7474691,8.0185003000006,0,0
2238,4$,1,31,62,42,21,52,12,Abstract_Concrete_6tasks_simseq_2seq_listtask_switchAB_fMRI,297626,12345,43152,6,2,202,A2,vest,2,4$,8328.7289688,8345.7476817,17.0187129000005,0,0
2709,4$,1,32,62,41,21,51,11,Abstract_Concrete_6tasks_simseq_2seq_listtask_switchAB_fMRI,297626,12345,43152,6,3,203,B5,vest,2,4$,8328.7289688,8355.7531872,27.0242183999999,0,0
2204,8*,1,31,61,42,21,51,11,Abstract_Concrete_6tasks_simseq_2seq_listtask_switchAB_fMRI,297626,12345,43152,6,4,204,A5,tools,6,8*,8328.7289688,8365.7498167,37.0208478999994,0,0
4199,7&,1,31,61,41,22,51,11,Abstract_Concrete_6tasks_simseq_2seq_listtask_switchAB_fMRI,297626,12345,43152,6,5,205,B2,glasses,3,7&,8328.7289688,8375.7505157,47.0215468999995,0,0
4228,7&,1,32,62,42,21,51,11,Abstract_Concrete_6tasks_simseq_2seq_listtask_switchAB_fMRI,297626,12345,43152,6,6,206,A3,glasses,3,7&,8328.7289688,8387.7495588,59.0205900000001,0,0
5325,7&,1,32,62,42,22,51,11,Abstract_Concrete_6tasks_simseq_2seq_listtask_switchAB_fMRI,297626,12345,43152,6,7,207,B2,glasses,3,7&,8328.7289688,8399.7500076,71.0210387999996,0,0
5684,3#,1,32,61,42,22,51,12,Abstract_Concrete_6tasks_simseq_2seq_listtask_switchAB_fMRI,297626,12345,43152,6,8,208,A4,weapon,5,3#,8328.7289688,8412.7510258,84.0220570000001,0,0
2870,3#,1,31,62,42,22,52,12,Abstract_Concrete_6tasks_simseq_2seq_listtask_switchAB_fMRI,297626,12345,43152,6,9,209,B1,weapon,5,3#,8328.7289688,8425.751102,97.0221332000001,0,0
5307,7&,1,31,62,42,22,52,12,Abstract_Concrete_6tasks_simseq_2seq_listtask_switchAB_fMRI,297626,12345,43152,6,10,210,A3,glasses,3,7&,8328.7289688,8435.7497653,107.020796499999,0,0
7982,8*,1,31,61,42,21,52,12,Abstract_Concrete_6tasks_simseq_2seq_listtask_switchAB_fMRI,297626,12345,43152,6,11,211,B4,tools,6,8*,8328.7289688,8448.7510003,120.022031500001,0,0
5050,4$,1,31,62,41,21,52,11,Abstract_Concrete_6tasks_simseq_2seq_listtask_switchAB_fMRI,297626,12345,43152,6,12,212,A2,vest,2,4$,8328.7289688,8464.7538782,136.024909399999,0,0
5681,8*,1,32,61,41,22,52,12,Abstract_Concrete_6tasks_simseq_2seq_listtask_switchAB_fMRI,297626,12345,43152,6,13,213,B4,tools,6,8*,8328.7289688,8477.7531945,149.024225699999,0,0
5757,8*,1,32,62,42,22,51,12,Abstract_Concrete_6tasks_simseq_2seq_listtask_switchAB_fMRI,297626,12345,43152,6,14,214,A5,tools,6,8*,8328.7289688,8490.750522,162.0215532,0,0
6206,4$,1,32,62,42,22,52,12,Abstract_Concrete_6tasks_simseq_2seq_listtask_switchAB_fMRI,297626,12345,43152,6,15,215,B5,vest,2,4$,8328.7289688,8503.7526244,175.0236556,0,0
4613,3#,1,31,61,42,21,51,11,Abstract_Concrete_6tasks_simseq_2seq_listtask_switchAB_fMRI,297626,12345,43152,6,16,216,A4,weapon,5,3#,8328.7289688,8517.7523309,189.023362100001,0,0
3076,4$,1,32,61,41,21,52,12,Abstract_Concrete_6tasks_simseq_2seq_listtask_switchAB_fMRI,297626,12345,43152,6,17,217,B5,vest,2,4$,8328.7289688,8529.7524322,201.023463400001,0,0
1550,2@,1,32,62,41,21,52,12,Abstract_Concrete_6tasks_simseq_2seq_listtask_switchAB_fMRI,297626,12345,43152,6,18,218,A1,helmet,1,2@,8328.7289688,8540.7483961,212.0194273,0,0
1475,3#,1,32,62,42,22,51,12,Abstract_Concrete_6tasks_simseq_2seq_listtask_switchAB_fMRI,297626,12345,43152,6,19,219,B1,weapon,5,3#,8328.7289688,8549.7494965,221.0205277,0,0
2636,4$,1,31,62,42,21,52,11,Abstract_Concrete_6tasks_simseq_2seq_listtask_switchAB_fMRI,297626,12345,43152,6,20,220,A2,vest,2,4$,8328.7289688,8558.750169,230.021200200001,0,0
5375,8*,1,32,61,41,21,52,12,Abstract_Concrete_6tasks_simseq_2seq_listtask_switchAB_fMRI,297626,12345,43152,6,21,221,B4,tools,6,8*,8328.7289688,8568.7508547,240.0218859,0,0
1428,2@,1,32,61,42,22,51,12,Abstract_Concrete_6tasks_simseq_2seq_listtask_switchAB_fMRI,297626,12345,43152,6,22,222,A1,helmet,1,2@,8328.7289688,8581.7493652,253.020396399999,0,0
4994,7&,1,31,62,41,22,51,11,Abstract_Concrete_6tasks_simseq_2seq_listtask_switchAB_fMRI,297626,12345,43152,6,23,223,B2,glasses,3,7&,8328.7289688,8590.7532881,262.024319300001,0,0
3372,7&,1,31,62,42,21,51,11,Abstract_Concrete_6tasks_simseq_2seq_listtask_switchAB_fMRI,297626,12345,43152,6,24,224,A3,glasses,3,7&,8328.7289688,8603.7476622,275.018693399999,0,0
4331,2@,1,32,62,42,22,52,11,Abstract_Concrete_6tasks_simseq_2seq_listtask_switchAB_fMRI,297626,12345,43152,6,25,225,B3,helmet,1,2@,8328.7289688,8614.7473382,286.018369400001,0,0
5476,4$,1,32,61,41,22,51,11,Abstract_Concrete_6tasks_simseq_2seq_listtask_switchAB_fMRI,297626,12345,43152,6,26,226,A2,vest,2,4$,8328.7289688,8626.7497591,298.020790299999,0,0
2328,7&,1,32,61,42,21,51,12,Abstract_Concrete_6tasks_simseq_2seq_listtask_switchAB_fMRI,297626,12345,43152,6,27,227,B2,glasses,3,7&,8328.7289688,8639.7498621,311.020893299999,0,0
2454,3#,1,31,62,42,22,51,12,Abstract_Concrete_6tasks_simseq_2seq_listtask_switchAB_fMRI,297626,12345,43152,6,28,228,A4,weapon,5,3#,8328.7289688,8649.7516437,321.022674899999,0,0
5146,2@,1,32,62,42,22,52,12,Abstract_Concrete_6tasks_simseq_2seq_listtask_switchAB_fMRI,297626,12345,43152,6,29,229,B3,helmet,1,2@,8328.7289688,8659.74972,331.0207512,0,0
2344,8*,1,32,61,41,21,52,12,Abstract_Concrete_6tasks_simseq_2seq_listtask_switchAB_fMRI,297626,12345,43152,6,30,230,A5,tools,6,8*,8328.7289688,8672.7608659,344.0318971,0,0
5443,3#,1,32,61,41,22,52,11,Abstract_Concrete_6tasks_simseq_2seq_listtask_switchAB_fMRI,297626,12345,43152,6,31,231,B1,weapon,5,3#,8328.7289688,8682.7502438,354.021274999999,0,0
5962,7&,1,32,62,41,21,52,11,Abstract_Concrete_6tasks_simseq_2seq_listtask_switchAB_fMRI,297626,12345,43152,6,32,232,A3,glasses,3,7&,8328.7289688,8695.7491654,367.0201966,0,0
5371,2@,1,32,61,42,21,52,11,Abstract_Concrete_6tasks_simseq_2seq_listtask_switchAB_fMRI,297626,12345,43152,6,33,233,B3,helmet,1,2@,8328.7289688,8708.7479154,380.018946599999,0,0
4819,3#,1,32,62,42,22,52,11,Abstract_Concrete_6tasks_simseq_2seq_listtask_switchAB_fMRI,297626,12345,43152,6,34,234,A4,weapon,5,3#,8328.7289688,8721.7509926,393.0220238,0,0
2815,4$,1,32,61,42,22,52,12,Abstract_Concrete_6tasks_simseq_2seq_listtask_switchAB_fMRI,297626,12345,43152,6,35,235,B5,vest,2,4$,8328.7289688,8733.7487405,405.019771699999,0,0
2195,2@,1,31,61,41,21,51,11,Abstract_Concrete_6tasks_simseq_2seq_listtask_switchAB_fMRI,297626,12345,43152,6,36,236,A1,helmet,1,2@,8328.7289688,8743.747846,415.0188772,0,0
3170,8*,1,31,61,41,22,51,11,Abstract_Concrete_6tasks_simseq_2seq_listtask_switchAB_fMRI,297626,12345,43152,6,37,237,B4,tools,6,8*,8328.7289688,8753.7490897,425.020120900001,0,0
2289,8*,1,31,61,41,21,51,12,Abstract_Concrete_6tasks_simseq_2seq_listtask_switchAB_fMRI,297626,12345,43152,6,38,238,A5,tools,6,8*,8328.7289688,8764.7503901,436.0214213,0,0
2713,2@,1,32,62,41,22,51,12,Abstract_Concrete_6tasks_simseq_2seq_listtask_switchAB_fMRI,297626,12345,43152,6,39,239,B3,helmet,1,2@,8328.7289688,8774.752574,446.0236052,0,0
3180,2@,1,32,61,41,22,51,12,Abstract_Concrete_6tasks_simseq_2seq_listtask_switchAB_fMRI,297626,12345,43152,6,40,240,A1,helmet,1,2@,8328.7289688,8784.748512,456.0195432,0,0
