rt1,resp1,correct1,features_1,features_2,features_3,features_4,features_5,features_6,ExpName,subNo,seqA,seqB,block,trial,trialnum,cuetype,task,subtaskcode,corr_resp1,onsetTime_s,onsetTime_cue,onset_cue,onsetTime_cue_fb,onset_cue_fb
4885,7&,1,51,41,32,12,22,61,Abstract_Concrete_6tasks_simseq_2seq_listtask_switchAB_fMRI,299988,12435,34152,1,1,1,B2,weapon,5,7&,4601.2470776,4609.2591014,8.01202379999995,0,0
4903,2@,1,52,41,32,12,21,62,Abstract_Concrete_6tasks_simseq_2seq_listtask_switchAB_fMRI,299988,12435,34152,1,2,2,A5,tools,6,2@,4601.2470776,4621.2579601,20.0108824999998,0,0
2984,2@,0,51,41,31,12,22,62,Abstract_Concrete_6tasks_simseq_2seq_listtask_switchAB_fMRI,299988,12435,34152,1,3,3,B5,vest,2,3#,4601.2470776,4633.2591394,32.0120618000001,4636.2629059,35.0158283000001
3829,7&,1,52,42,31,12,21,61,Abstract_Concrete_6tasks_simseq_2seq_listtask_switchAB_fMRI,299988,12435,34152,1,4,4,A3,weapon,5,7&,4601.2470776,4644.2592265,43.0121489000003,0,0
3754,9(,1,52,41,31,11,21,62,Abstract_Concrete_6tasks_simseq_2seq_listtask_switchAB_fMRI,299988,12435,34152,1,5,5,B1,glasses,3,9(,4601.2470776,4655.2589706,54.0118929999999,0,0
2980,7&,0,51,41,31,12,21,62,Abstract_Concrete_6tasks_simseq_2seq_listtask_switchAB_fMRI,299988,12435,34152,1,6,6,A2,vest,2,3#,4601.2470776,4666.2589345,65.0118568999997,4669.2530006,68.0059229999997
4396,4$,1,51,41,32,11,22,62,Abstract_Concrete_6tasks_simseq_2seq_listtask_switchAB_fMRI,299988,12435,34152,1,7,7,B3,helmet,1,4$,4601.2470776,4677.2575043,76.0104266999997,0,0
7652,2@,1,51,41,31,12,22,62,Abstract_Concrete_6tasks_simseq_2seq_listtask_switchAB_fMRI,299988,12435,34152,1,8,8,A5,tools,6,2@,4601.2470776,4689.2604568,88.0133791999997,0,0
2963,4$,1,52,41,32,12,22,62,Abstract_Concrete_6tasks_simseq_2seq_listtask_switchAB_fMRI,299988,12435,34152,1,9,9,B3,helmet,1,4$,4601.2470776,4704.2601991,103.0131215,0,0
3017,2@,1,52,42,32,12,21,62,Abstract_Concrete_6tasks_simseq_2seq_listtask_switchAB_fMRI,299988,12435,34152,1,10,10,A5,tools,6,2@,4601.2470776,4714.2595893,113.0125117,0,0
4157,3#,1,51,42,31,11,21,62,Abstract_Concrete_6tasks_simseq_2seq_listtask_switchAB_fMRI,299988,12435,34152,1,11,11,B5,vest,2,3#,4601.2470776,4725.2590899,124.0120123,0,0
3355,2@,0,51,42,32,12,22,61,Abstract_Concrete_6tasks_simseq_2seq_listtask_switchAB_fMRI,299988,12435,34152,1,12,12,A1,helmet,1,4$,4601.2470776,4737.2583681,136.0112905,4740.6272813,139.3802037
2614,3#,1,52,41,32,11,22,62,Abstract_Concrete_6tasks_simseq_2seq_listtask_switchAB_fMRI,299988,12435,34152,1,13,13,B5,vest,2,3#,4601.2470776,4748.2584121,147.0113345,0,0
4695,2@,0,52,41,31,12,22,61,Abstract_Concrete_6tasks_simseq_2seq_listtask_switchAB_fMRI,299988,12435,34152,1,14,14,A4,glasses,3,9(,4601.2470776,4758.2594714,157.0123938,4762.9677199,161.7206423
2420,3#,1,52,42,32,12,22,61,Abstract_Concrete_6tasks_simseq_2seq_listtask_switchAB_fMRI,299988,12435,34152,1,15,15,B5,vest,2,3#,4601.2470776,4770.257334,169.0102564,0,0
5830,9(,1,52,41,32,11,22,61,Abstract_Concrete_6tasks_simseq_2seq_listtask_switchAB_fMRI,299988,12435,34152,1,16,16,A4,glasses,3,9(,4601.2470776,4780.2584317,179.0113541,0,0
4943,2@,1,52,41,31,12,21,61,Abstract_Concrete_6tasks_simseq_2seq_listtask_switchAB_fMRI,299988,12435,34152,1,17,17,B4,tools,6,2@,4601.2470776,4793.2580084,192.0109308,0,0
3167,3#,1,51,42,32,12,22,61,Abstract_Concrete_6tasks_simseq_2seq_listtask_switchAB_fMRI,299988,12435,34152,1,18,18,A2,vest,2,3#,4601.2470776,4805.2582067,204.0111291,0,0
5295,2@,1,52,42,31,12,22,62,Abstract_Concrete_6tasks_simseq_2seq_listtask_switchAB_fMRI,299988,12435,34152,1,19,19,B4,tools,6,2@,4601.2470776,4816.2592682,215.0121906,0,0
2563,3#,1,51,42,32,11,21,62,Abstract_Concrete_6tasks_simseq_2seq_listtask_switchAB_fMRI,299988,12435,34152,1,20,20,A2,vest,2,3#,4601.2470776,4829.259121,228.0120434,0,0
3050,7&,1,52,41,32,12,21,62,Abstract_Concrete_6tasks_simseq_2seq_listtask_switchAB_fMRI,299988,12435,34152,1,21,21,B2,weapon,5,7&,4601.2470776,4839.258923,238.0118454,0,0
2437,7&,1,52,42,31,11,21,62,Abstract_Concrete_6tasks_simseq_2seq_listtask_switchAB_fMRI,299988,12435,34152,1,22,22,A3,weapon,5,7&,4601.2470776,4850.258266,249.0111884,0,0
3746,9(,1,51,41,31,11,22,61,Abstract_Concrete_6tasks_simseq_2seq_listtask_switchAB_fMRI,299988,12435,34152,1,23,23,B1,glasses,3,9(,4601.2470776,4860.2594055,259.0123279,0,0
2601,7&,1,52,41,32,11,21,62,Abstract_Concrete_6tasks_simseq_2seq_listtask_switchAB_fMRI,299988,12435,34152,1,24,24,A3,weapon,5,7&,4601.2470776,4871.257237,270.0101594,0,0
3867,4$,1,51,42,32,11,21,62,Abstract_Concrete_6tasks_simseq_2seq_listtask_switchAB_fMRI,299988,12435,34152,1,25,25,B3,helmet,1,4$,4601.2470776,4881.2598733,280.0127957,0,0
2427,7&,1,51,41,31,11,21,62,Abstract_Concrete_6tasks_simseq_2seq_listtask_switchAB_fMRI,299988,12435,34152,1,26,26,A3,weapon,5,7&,4601.2470776,4892.2569444,291.0098668,0,0
3125,9(,1,51,41,31,12,21,61,Abstract_Concrete_6tasks_simseq_2seq_listtask_switchAB_fMRI,299988,12435,34152,1,27,27,B1,glasses,3,9(,4601.2470776,4902.257953,301.0108754,0,0
3901,4$,1,52,41,31,12,22,62,Abstract_Concrete_6tasks_simseq_2seq_listtask_switchAB_fMRI,299988,12435,34152,1,28,28,A1,helmet,1,4$,4601.2470776,4913.2590782,312.0120006,0,0
1292,9(,1,52,42,32,12,21,62,Abstract_Concrete_6tasks_simseq_2seq_listtask_switchAB_fMRI,299988,12435,34152,1,29,29,B1,glasses,3,9(,4601.2470776,4924.2591579,323.0120803,0,0
1469,4$,1,52,41,31,12,21,61,Abstract_Concrete_6tasks_simseq_2seq_listtask_switchAB_fMRI,299988,12435,34152,1,30,30,A1,helmet,1,4$,4601.2470776,4933.2602862,332.0132086,0,0
2623,7&,1,52,42,31,12,22,61,Abstract_Concrete_6tasks_simseq_2seq_listtask_switchAB_fMRI,299988,12435,34152,1,31,31,B2,weapon,5,7&,4601.2470776,4942.2584018,341.0113242,0,0
3178,2@,1,51,42,32,12,22,62,Abstract_Concrete_6tasks_simseq_2seq_listtask_switchAB_fMRI,299988,12435,34152,1,32,32,A5,tools,6,2@,4601.2470776,4952.2584009,351.0113233,0,0
5819,4$,1,51,42,32,12,21,62,Abstract_Concrete_6tasks_simseq_2seq_listtask_switchAB_fMRI,299988,12435,34152,1,33,33,B3,helmet,1,4$,4601.2470776,4963.2601934,362.0131158,0,0
2986,9(,1,51,42,31,12,22,62,Abstract_Concrete_6tasks_simseq_2seq_listtask_switchAB_fMRI,299988,12435,34152,1,34,34,A4,glasses,3,9(,4601.2470776,4976.2582034,375.0111258,0,0
3624,2@,1,52,41,31,11,21,61,Abstract_Concrete_6tasks_simseq_2seq_listtask_switchAB_fMRI,299988,12435,34152,1,35,35,B4,tools,6,2@,4601.2470776,4986.2582006,385.011123,0,0
2111,3#,1,51,41,31,11,22,61,Abstract_Concrete_6tasks_simseq_2seq_listtask_switchAB_fMRI,299988,12435,34152,1,36,36,A2,vest,2,3#,4601.2470776,4997.257707,396.0106294,0,0
5581,2@,1,52,41,31,11,22,62,Abstract_Concrete_6tasks_simseq_2seq_listtask_switchAB_fMRI,299988,12435,34152,1,37,37,B4,tools,6,2@,4601.2470776,5007.2605346,406.013457,0,0
3649,2@,0,51,41,31,11,22,61,Abstract_Concrete_6tasks_simseq_2seq_listtask_switchAB_fMRI,299988,12435,34152,1,38,38,A1,helmet,1,4$,4601.2470776,5020.2605828,419.0135052,5023.9243272,422.6772496
5337,7&,1,51,42,32,12,21,61,Abstract_Concrete_6tasks_simseq_2seq_listtask_switchAB_fMRI,299988,12435,34152,1,39,39,B2,weapon,5,7&,4601.2470776,5031.2577049,430.0106273,0,0
6980,2@,0,51,42,32,12,22,61,Abstract_Concrete_6tasks_simseq_2seq_listtask_switchAB_fMRI,299988,12435,34152,1,40,40,A4,glasses,3,9(,4601.2470776,5044.2582088,443.0111312,5051.2528652,450.0057876
6000,9(,1,52,42,31,12,21,62,Abstract_Concrete_6tasks_simseq_2seq_listtask_switchAB_fMRI,299988,12435,34152,2,1,41,A4,glasses,3,9(,5167.3996481,5175.4101739,8.01052579999941,0,0
5195,3#,1,51,42,31,11,21,62,Abstract_Concrete_6tasks_simseq_2seq_listtask_switchAB_fMRI,299988,12435,34152,2,2,42,B5,vest,2,3#,5167.3996481,5189.40896530036,22.0093172003571,0,0
3103,2@,1,52,42,32,12,21,62,Abstract_Concrete_6tasks_simseq_2seq_listtask_switchAB_fMRI,299988,12435,34152,2,3,43,A5,tools,6,2@,5167.3996481,5202.4114615,35.0118133999995,0,0
2363,3#,1,52,42,32,11,22,62,Abstract_Concrete_6tasks_simseq_2seq_listtask_switchAB_fMRI,299988,12435,34152,2,4,44,B5,vest,2,3#,5167.3996481,5213.4134992,46.0138510999996,0,0
2316,2@,1,51,42,32,11,22,61,Abstract_Concrete_6tasks_simseq_2seq_listtask_switchAB_fMRI,299988,12435,34152,2,5,45,A5,tools,6,2@,5167.3996481,5223.4123029,56.0126547999998,0,0
3639,4$,1,52,42,32,12,22,62,Abstract_Concrete_6tasks_simseq_2seq_listtask_switchAB_fMRI,299988,12435,34152,2,6,46,B3,helmet,1,4$,5167.3996481,5233.4110383,66.0113901999994,0,0
3085,3#,1,52,41,32,12,21,62,Abstract_Concrete_6tasks_simseq_2seq_listtask_switchAB_fMRI,299988,12435,34152,2,7,47,A2,vest,2,3#,5167.3996481,5244.4114912,77.0118430999992,0,0
4874,4$,1,51,41,31,12,22,61,Abstract_Concrete_6tasks_simseq_2seq_listtask_switchAB_fMRI,299988,12435,34152,2,8,48,B3,helmet,1,4$,5167.3996481,5255.4115529,88.0119047999997,0,0
3893,4$,1,51,41,32,11,22,61,Abstract_Concrete_6tasks_simseq_2seq_listtask_switchAB_fMRI,299988,12435,34152,2,9,49,A1,helmet,1,4$,5167.3996481,5267.4093525,100.009704399999,0,0
2264,9(,1,51,42,32,12,22,61,Abstract_Concrete_6tasks_simseq_2seq_listtask_switchAB_fMRI,299988,12435,34152,2,10,50,B1,glasses,3,9(,5167.3996481,5278.4112028,111.0115547,0,0
2999,4$,1,51,41,32,11,21,62,Abstract_Concrete_6tasks_simseq_2seq_listtask_switchAB_fMRI,299988,12435,34152,2,11,51,A1,helmet,1,4$,5167.3996481,5288.4108273,121.0111792,0,0
3131,7&,1,51,41,31,11,21,62,Abstract_Concrete_6tasks_simseq_2seq_listtask_switchAB_fMRI,299988,12435,34152,2,12,52,B2,weapon,5,7&,5167.3996481,5299.4111962,132.011548099999,0,0
1915,4$,1,52,42,31,11,21,61,Abstract_Concrete_6tasks_simseq_2seq_listtask_switchAB_fMRI,299988,12435,34152,2,13,53,A1,helmet,1,4$,5167.3996481,5310.4114118,143.011763699999,0,0
4189,7&,1,52,42,32,11,22,61,Abstract_Concrete_6tasks_simseq_2seq_listtask_switchAB_fMRI,299988,12435,34152,2,14,54,B2,weapon,5,7&,5167.3996481,5319.4111847,152.0115366,0,0
2482,3#,1,52,42,31,12,21,62,Abstract_Concrete_6tasks_simseq_2seq_listtask_switchAB_fMRI,299988,12435,34152,2,15,55,A2,vest,2,3#,5167.3996481,5331.4124669,164.0128188,0,0
3452,7&,1,51,42,32,12,21,61,Abstract_Concrete_6tasks_simseq_2seq_listtask_switchAB_fMRI,299988,12435,34152,2,16,56,B2,weapon,5,7&,5167.3996481,5341.4101013,174.0104532,0,0
4886,2@,0,52,41,31,11,21,61,Abstract_Concrete_6tasks_simseq_2seq_listtask_switchAB_fMRI,299988,12435,34152,2,17,57,A4,glasses,3,9(,5167.3996481,5352.4131311,185.013483,5357.316592,189.9169439
4010,9(,1,51,41,31,11,22,61,Abstract_Concrete_6tasks_simseq_2seq_listtask_switchAB_fMRI,299988,12435,34152,2,18,58,B1,glasses,3,9(,5167.3996481,5364.4115349,197.0118868,0,0
1867,2@,1,51,42,31,12,22,62,Abstract_Concrete_6tasks_simseq_2seq_listtask_switchAB_fMRI,299988,12435,34152,2,19,59,A5,tools,6,2@,5167.3996481,5376.4116548,209.0120067,0,0
2796,3#,1,52,42,32,11,22,61,Abstract_Concrete_6tasks_simseq_2seq_listtask_switchAB_fMRI,299988,12435,34152,2,20,60,B5,vest,2,3#,5167.3996481,5385.4093343,218.0096862,0,0
4467,7&,1,52,42,32,12,22,62,Abstract_Concrete_6tasks_simseq_2seq_listtask_switchAB_fMRI,299988,12435,34152,2,21,61,A3,weapon,5,7&,5167.3996481,5395.4097876,228.010139499999,0,0
7700,2@,1,51,41,31,12,21,62,Abstract_Concrete_6tasks_simseq_2seq_listtask_switchAB_fMRI,299988,12435,34152,2,22,62,B4,tools,6,2@,5167.3996481,5407.4134677,240.0138196,0,0
2921,2@,1,52,42,31,11,21,62,Abstract_Concrete_6tasks_simseq_2seq_listtask_switchAB_fMRI,299988,12435,34152,2,23,63,A5,tools,6,2@,5167.3996481,5422.4126089,255.0129608,0,0
3557,3#,1,51,42,32,11,21,61,Abstract_Concrete_6tasks_simseq_2seq_listtask_switchAB_fMRI,299988,12435,34152,2,24,64,B5,vest,2,3#,5167.3996481,5432.4122442,265.012596099999,0,0
4424,7&,1,51,42,31,11,21,62,Abstract_Concrete_6tasks_simseq_2seq_listtask_switchAB_fMRI,299988,12435,34152,2,25,65,A3,weapon,5,7&,5167.3996481,5443.4099006,276.010252499999,0,0
1392,9(,1,52,42,32,12,21,62,Abstract_Concrete_6tasks_simseq_2seq_listtask_switchAB_fMRI,299988,12435,34152,2,26,66,B1,glasses,3,9(,5167.3996481,5455.4123697,288.0127216,0,0
4398,3#,1,51,41,32,11,21,61,Abstract_Concrete_6tasks_simseq_2seq_listtask_switchAB_fMRI,299988,12435,34152,2,27,67,A2,vest,2,3#,5167.3996481,5464.4128587,297.013210599999,0,0
7010,4$,1,52,42,31,11,21,61,Abstract_Concrete_6tasks_simseq_2seq_listtask_switchAB_fMRI,299988,12435,34152,2,28,68,B3,helmet,1,4$,5167.3996481,5476.4106568,309.011008699999,0,0
6274,9(,1,52,42,31,11,22,61,Abstract_Concrete_6tasks_simseq_2seq_listtask_switchAB_fMRI,299988,12435,34152,2,29,69,A4,glasses,3,9(,5167.3996481,5491.4107519,324.0111038,0,0
2727,7&,1,52,41,32,12,22,61,Abstract_Concrete_6tasks_simseq_2seq_listtask_switchAB_fMRI,299988,12435,34152,2,30,70,B2,weapon,5,7&,5167.3996481,5505.4105029,338.0108548,0,0
3929,9(,1,52,42,31,11,22,61,Abstract_Concrete_6tasks_simseq_2seq_listtask_switchAB_fMRI,299988,12435,34152,2,31,71,A4,glasses,3,9(,5167.3996481,5515.4109692,348.0113211,0,0
6679,2@,1,52,42,31,11,21,62,Abstract_Concrete_6tasks_simseq_2seq_listtask_switchAB_fMRI,299988,12435,34152,2,32,72,B4,tools,6,2@,5167.3996481,5526.4097894,359.010141299999,0,0
6901,7&,1,52,42,32,12,21,61,Abstract_Concrete_6tasks_simseq_2seq_listtask_switchAB_fMRI,299988,12435,34152,2,33,73,A3,weapon,5,7&,5167.3996481,5540.4127627,373.013114599999,0,0
5708,2@,1,52,42,32,11,21,61,Abstract_Concrete_6tasks_simseq_2seq_listtask_switchAB_fMRI,299988,12435,34152,2,34,74,B4,tools,6,2@,5167.3996481,5554.4102135,387.0105654,0,0
1964,7&,1,52,42,32,12,22,62,Abstract_Concrete_6tasks_simseq_2seq_listtask_switchAB_fMRI,299988,12435,34152,2,35,75,A3,weapon,5,7&,5167.3996481,5567.4111555,400.0115074,0,0
2687,2@,1,51,41,31,12,22,62,Abstract_Concrete_6tasks_simseq_2seq_listtask_switchAB_fMRI,299988,12435,34152,2,36,76,B4,tools,6,2@,5167.3996481,5576.4123762,409.0127281,0,0
2091,4$,1,52,42,31,11,22,61,Abstract_Concrete_6tasks_simseq_2seq_listtask_switchAB_fMRI,299988,12435,34152,2,37,77,A1,helmet,1,4$,5167.3996481,5586.4102977,419.0106496,0,0
2312,9(,1,52,41,31,12,21,61,Abstract_Concrete_6tasks_simseq_2seq_listtask_switchAB_fMRI,299988,12435,34152,2,38,78,B1,glasses,3,9(,5167.3996481,5596.4116586,429.0120105,0,0
3665,3#,1,51,41,31,11,21,61,Abstract_Concrete_6tasks_simseq_2seq_listtask_switchAB_fMRI,299988,12435,34152,2,39,79,A2,vest,2,3#,5167.3996481,5606.4105807,439.010932599999,0,0
1881,4$,1,52,42,32,11,22,61,Abstract_Concrete_6tasks_simseq_2seq_listtask_switchAB_fMRI,299988,12435,34152,2,40,80,B3,helmet,1,4$,5167.3996481,5617.4113701,450.011721999999,0,0
3418,4$,1,51,42,32,11,21,62,Abstract_Concrete_6tasks_simseq_2seq_listtask_switchAB_fMRI,299988,12435,34152,3,1,81,B3,helmet,1,4$,5680.6485104,5688.6586418,8.01013139999941,0,0
1890,3#,1,51,42,32,11,21,62,Abstract_Concrete_6tasks_simseq_2seq_listtask_switchAB_fMRI,299988,12435,34152,3,2,82,A2,vest,2,3#,5680.6485104,5699.65831,19.0097995999995,0,0
3629,7&,1,51,41,32,11,21,61,Abstract_Concrete_6tasks_simseq_2seq_listtask_switchAB_fMRI,299988,12435,34152,3,3,83,B2,weapon,5,7&,5680.6485104,5708.6594431,28.0109327,0,0
2285,4$,0,51,41,32,12,22,61,Abstract_Concrete_6tasks_simseq_2seq_listtask_switchAB_fMRI,299988,12435,34152,3,4,84,A3,weapon,5,7&,5680.6485104,5719.659987,39.0114765999997,5721.9903924,41.3418819999997
6400,2@,1,51,41,32,12,21,61,Abstract_Concrete_6tasks_simseq_2seq_listtask_switchAB_fMRI,299988,12435,34152,3,5,85,B4,tools,6,2@,5680.6485104,5729.6601789,49.0116684999994,0,0
3271,2@,1,51,42,31,11,21,62,Abstract_Concrete_6tasks_simseq_2seq_listtask_switchAB_fMRI,299988,12435,34152,3,6,86,A5,tools,6,2@,5680.6485104,5743.6605024,63.0119919999997,0,0
1145,9(,1,51,42,31,12,21,62,Abstract_Concrete_6tasks_simseq_2seq_listtask_switchAB_fMRI,299988,12435,34152,3,7,87,B1,glasses,3,9(,5680.6485104,5754.6602405,74.0117301,0,0
1127,4$,1,51,42,32,12,22,61,Abstract_Concrete_6tasks_simseq_2seq_listtask_switchAB_fMRI,299988,12435,34152,3,8,88,A1,helmet,1,4$,5680.6485104,5763.6598711,83.0113606999994,0,0
1925,9(,1,51,42,31,12,21,61,Abstract_Concrete_6tasks_simseq_2seq_listtask_switchAB_fMRI,299988,12435,34152,3,9,89,B1,glasses,3,9(,5680.6485104,5772.661678,92.0131676000001,0,0
4210,9(,1,52,42,32,11,21,61,Abstract_Concrete_6tasks_simseq_2seq_listtask_switchAB_fMRI,299988,12435,34152,3,10,90,A4,glasses,3,9(,5680.6485104,5781.6600259,101.011515499999,0,0
2927,7&,1,51,41,32,12,21,61,Abstract_Concrete_6tasks_simseq_2seq_listtask_switchAB_fMRI,299988,12435,34152,3,11,91,B2,weapon,5,7&,5680.6485104,5793.662106,113.013595599999,0,0
1998,4$,1,51,42,31,11,22,62,Abstract_Concrete_6tasks_simseq_2seq_listtask_switchAB_fMRI,299988,12435,34152,3,12,92,A1,helmet,1,4$,5680.6485104,5803.6594828,123.010972399999,0,0
2497,3#,1,52,42,32,12,21,61,Abstract_Concrete_6tasks_simseq_2seq_listtask_switchAB_fMRI,299988,12435,34152,3,13,93,B5,vest,2,3#,5680.6485104,5813.6597999,133.011289499999,0,0
2333,9(,1,51,41,32,12,21,62,Abstract_Concrete_6tasks_simseq_2seq_listtask_switchAB_fMRI,299988,12435,34152,3,14,94,A4,glasses,3,9(,5680.6485104,5823.6605431,143.0120327,0,0
3244,2@,1,52,41,32,11,21,62,Abstract_Concrete_6tasks_simseq_2seq_listtask_switchAB_fMRI,299988,12435,34152,3,15,95,B4,tools,6,2@,5680.6485104,5833.659762,153.0112516,0,0
4225,3#,1,52,41,31,12,22,62,Abstract_Concrete_6tasks_simseq_2seq_listtask_switchAB_fMRI,299988,12435,34152,3,16,96,A2,vest,2,3#,5680.6485104,5844.6615431,164.0130327,0,0
3162,2@,1,52,42,32,11,21,61,Abstract_Concrete_6tasks_simseq_2seq_listtask_switchAB_fMRI,299988,12435,34152,3,17,97,B4,tools,6,2@,5680.6485104,5856.6603146,176.011804199999,0,0
2063,4$,1,51,42,31,12,22,61,Abstract_Concrete_6tasks_simseq_2seq_listtask_switchAB_fMRI,299988,12435,34152,3,18,98,A1,helmet,1,4$,5680.6485104,5867.6623499,187.013839499999,0,0
3001,3#,1,51,41,32,12,22,61,Abstract_Concrete_6tasks_simseq_2seq_listtask_switchAB_fMRI,299988,12435,34152,3,19,99,B5,vest,2,3#,5680.6485104,5877.6607176,197.012207199999,0,0
5362,2@,1,51,41,32,11,21,61,Abstract_Concrete_6tasks_simseq_2seq_listtask_switchAB_fMRI,299988,12435,34152,3,20,100,A5,tools,6,2@,5680.6485104,5888.6595453,208.0110349,0,0
4853,4$,1,52,41,31,12,21,62,Abstract_Concrete_6tasks_simseq_2seq_listtask_switchAB_fMRI,299988,12435,34152,3,21,101,B3,helmet,1,4$,5680.6485104,5901.6616971,221.0131867,0,0
2955,3#,1,52,41,31,12,21,62,Abstract_Concrete_6tasks_simseq_2seq_listtask_switchAB_fMRI,299988,12435,34152,3,22,102,A2,vest,2,3#,5680.6485104,5913.6590851,233.0105747,0,0
1618,9(,1,52,42,31,11,22,61,Abstract_Concrete_6tasks_simseq_2seq_listtask_switchAB_fMRI,299988,12435,34152,3,23,103,B1,glasses,3,9(,5680.6485104,5923.660885,243.0123746,0,0
3609,9(,1,52,41,32,11,22,62,Abstract_Concrete_6tasks_simseq_2seq_listtask_switchAB_fMRI,299988,12435,34152,3,24,104,A4,glasses,3,9(,5680.6485104,5932.6608269,252.0123165,0,0
2259,3#,1,51,42,32,11,22,62,Abstract_Concrete_6tasks_simseq_2seq_listtask_switchAB_fMRI,299988,12435,34152,3,25,105,B5,vest,2,3#,5680.6485104,5943.6598171,263.011306699999,0,0
3494,2@,1,52,42,31,12,22,62,Abstract_Concrete_6tasks_simseq_2seq_listtask_switchAB_fMRI,299988,12435,34152,3,26,106,A5,tools,6,2@,5680.6485104,5953.6604585,273.011948099999,0,0
3730,7&,1,52,42,31,12,22,62,Abstract_Concrete_6tasks_simseq_2seq_listtask_switchAB_fMRI,299988,12435,34152,3,27,107,B2,weapon,5,7&,5680.6485104,5964.6591587,284.0106483,0,0
5229,3#,1,51,42,32,12,22,62,Abstract_Concrete_6tasks_simseq_2seq_listtask_switchAB_fMRI,299988,12435,34152,3,28,108,A2,vest,2,3#,5680.6485104,5975.6598859,295.011375499999,0,0
2848,4$,1,51,41,32,12,22,62,Abstract_Concrete_6tasks_simseq_2seq_listtask_switchAB_fMRI,299988,12435,34152,3,29,109,B3,helmet,1,4$,5680.6485104,5988.6598616,308.0113512,0,0
0,,0,51,42,31,12,22,61,Abstract_Concrete_6tasks_simseq_2seq_listtask_switchAB_fMRI,299988,12435,34152,3,30,110,A3,weapon,5,7&,5680.6485104,5998.6602311,318.011720699999,6007.6996728,327.0511624
1997,9(,1,52,42,31,12,22,62,Abstract_Concrete_6tasks_simseq_2seq_listtask_switchAB_fMRI,299988,12435,34152,3,31,111,B1,glasses,3,9(,5680.6485104,6015.6580239,335.0095135,0,0
4790,2@,1,51,41,32,12,21,61,Abstract_Concrete_6tasks_simseq_2seq_listtask_switchAB_fMRI,299988,12435,34152,3,32,112,A5,tools,6,2@,5680.6485104,6025.6604901,345.0119797,0,0
4338,4$,1,52,41,32,12,22,61,Abstract_Concrete_6tasks_simseq_2seq_listtask_switchAB_fMRI,299988,12435,34152,3,33,113,B3,helmet,1,4$,5680.6485104,6037.6595927,357.0110823,0,0
2171,9(,1,51,41,32,12,21,61,Abstract_Concrete_6tasks_simseq_2seq_listtask_switchAB_fMRI,299988,12435,34152,3,34,114,A4,glasses,3,9(,5680.6485104,6049.6591555,369.0106451,0,0
3404,2@,1,51,42,32,12,21,62,Abstract_Concrete_6tasks_simseq_2seq_listtask_switchAB_fMRI,299988,12435,34152,3,35,115,B4,tools,6,2@,5680.6485104,6059.661331,379.0128206,0,0
1836,7&,1,52,41,32,12,22,61,Abstract_Concrete_6tasks_simseq_2seq_listtask_switchAB_fMRI,299988,12435,34152,3,36,116,A3,weapon,5,7&,5680.6485104,6070.6616309,390.0131205,0,0
2819,4$,0,52,41,32,12,22,62,Abstract_Concrete_6tasks_simseq_2seq_listtask_switchAB_fMRI,299988,12435,34152,3,37,117,B5,vest,2,3#,5680.6485104,6079.6594779,399.010967499999,6082.4895522,401.841041799999
2897,7&,1,52,42,31,11,22,62,Abstract_Concrete_6tasks_simseq_2seq_listtask_switchAB_fMRI,299988,12435,34152,3,38,118,A3,weapon,5,7&,5680.6485104,6089.6602994,409.011789,0,0
2429,7&,1,52,42,31,11,21,61,Abstract_Concrete_6tasks_simseq_2seq_listtask_switchAB_fMRI,299988,12435,34152,3,39,119,B2,weapon,5,7&,5680.6485104,6099.661066,419.012555599999,0,0
3024,4$,1,51,42,32,11,22,61,Abstract_Concrete_6tasks_simseq_2seq_listtask_switchAB_fMRI,299988,12435,34152,3,40,120,A1,helmet,1,4$,5680.6485104,6109.658714,429.0102036,0,0
3054,3#,1,51,41,31,11,21,61,Abstract_Concrete_6tasks_simseq_2seq_listtask_switchAB_fMRI,299988,12435,34152,4,1,121,B5,vest,2,3#,6289.0187768,6297.0280688,8.00929200000064,0,0
3368,9(,1,52,42,32,11,22,62,Abstract_Concrete_6tasks_simseq_2seq_listtask_switchAB_fMRI,299988,12435,34152,4,2,122,A4,glasses,3,9(,6289.0187768,6308.0290843,19.0103075000006,0,0
2580,7&,1,51,41,31,11,22,62,Abstract_Concrete_6tasks_simseq_2seq_listtask_switchAB_fMRI,299988,12435,34152,4,3,123,B2,weapon,5,7&,6289.0187768,6319.0308278,30.0120510000006,0,0
2819,4$,1,51,41,32,12,22,62,Abstract_Concrete_6tasks_simseq_2seq_listtask_switchAB_fMRI,299988,12435,34152,4,4,124,A1,helmet,1,4$,6289.0187768,6329.0304529,40.0116760999999,0,0
2616,7&,1,52,42,31,12,22,62,Abstract_Concrete_6tasks_simseq_2seq_listtask_switchAB_fMRI,299988,12435,34152,4,5,125,B2,weapon,5,7&,6289.0187768,6339.0321048,50.013328,0,0
2222,3#,1,52,42,32,12,21,61,Abstract_Concrete_6tasks_simseq_2seq_listtask_switchAB_fMRI,299988,12435,34152,4,6,126,A2,vest,2,3#,6289.0187768,6349.0314231,60.0126463000006,0,0
2311,4$,1,52,41,32,11,21,61,Abstract_Concrete_6tasks_simseq_2seq_listtask_switchAB_fMRI,299988,12435,34152,4,7,127,B3,helmet,1,4$,6289.0187768,6359.0312757,70.0124989000005,0,0
3176,3#,0,52,41,32,12,22,62,Abstract_Concrete_6tasks_simseq_2seq_listtask_switchAB_fMRI,299988,12435,34152,4,8,128,A5,tools,6,2@,6289.0187768,6369.0304265,80.0116497000008,6372.2212141,83.2024373000004
3057,3#,1,51,42,32,11,22,61,Abstract_Concrete_6tasks_simseq_2seq_listtask_switchAB_fMRI,299988,12435,34152,4,9,129,B5,vest,2,3#,6289.0187768,6380.0311507,91.0123739000001,0,0
2134,7&,1,52,42,31,12,22,61,Abstract_Concrete_6tasks_simseq_2seq_listtask_switchAB_fMRI,299988,12435,34152,4,10,130,A3,weapon,5,7&,6289.0187768,6391.0328333,102.0140565,0,0
4946,2@,1,52,41,31,11,22,61,Abstract_Concrete_6tasks_simseq_2seq_listtask_switchAB_fMRI,299988,12435,34152,4,11,131,B4,tools,6,2@,6289.0187768,6401.0307633,112.011986500001,0,0
3413,9(,1,52,42,31,12,22,61,Abstract_Concrete_6tasks_simseq_2seq_listtask_switchAB_fMRI,299988,12435,34152,4,12,132,A4,glasses,3,9(,6289.0187768,6413.030031,124.011254200001,0,0
2675,3#,1,52,42,31,12,22,62,Abstract_Concrete_6tasks_simseq_2seq_listtask_switchAB_fMRI,299988,12435,34152,4,13,133,B5,vest,2,3#,6289.0187768,6424.0304145,135.0116377,0,0
2711,7&,1,51,42,31,12,22,61,Abstract_Concrete_6tasks_simseq_2seq_listtask_switchAB_fMRI,299988,12435,34152,4,14,134,A3,weapon,5,7&,6289.0187768,6434.0320529,145.0132761,0,0
2676,4$,1,52,41,31,12,21,61,Abstract_Concrete_6tasks_simseq_2seq_listtask_switchAB_fMRI,299988,12435,34152,4,15,135,B3,helmet,1,4$,6289.0187768,6444.0304398,155.011663,0,0
3138,2@,1,52,41,32,11,21,61,Abstract_Concrete_6tasks_simseq_2seq_listtask_switchAB_fMRI,299988,12435,34152,4,16,136,A5,tools,6,2@,6289.0187768,6454.0321502,165.0133734,0,0
1903,4$,1,51,42,32,12,21,61,Abstract_Concrete_6tasks_simseq_2seq_listtask_switchAB_fMRI,299988,12435,34152,4,17,137,B3,helmet,1,4$,6289.0187768,6465.0325891,176.013812300001,0,0
1200,4$,1,51,41,32,12,22,61,Abstract_Concrete_6tasks_simseq_2seq_listtask_switchAB_fMRI,299988,12435,34152,4,18,138,A1,helmet,1,4$,6289.0187768,6474.030427,185.0116502,0,0
1264,9(,1,51,42,31,11,22,61,Abstract_Concrete_6tasks_simseq_2seq_listtask_switchAB_fMRI,299988,12435,34152,4,19,139,B1,glasses,3,9(,6289.0187768,6483.0308187,194.0120419,0,0
2314,2@,1,51,41,32,12,22,61,Abstract_Concrete_6tasks_simseq_2seq_listtask_switchAB_fMRI,299988,12435,34152,4,20,140,A5,tools,6,2@,6289.0187768,6492.0298013,203.011024500001,0,0
2417,3#,1,51,41,31,11,21,62,Abstract_Concrete_6tasks_simseq_2seq_listtask_switchAB_fMRI,299988,12435,34152,4,21,141,B5,vest,2,3#,6289.0187768,6502.0304728,213.011696,0,0
3215,2@,1,52,41,32,12,21,62,Abstract_Concrete_6tasks_simseq_2seq_listtask_switchAB_fMRI,299988,12435,34152,4,22,142,A5,tools,6,2@,6289.0187768,6512.0319666,223.0131898,0,0
1437,9(,1,52,42,32,12,22,61,Abstract_Concrete_6tasks_simseq_2seq_listtask_switchAB_fMRI,299988,12435,34152,4,23,143,B1,glasses,3,9(,6289.0187768,6523.0310408,234.012264,0,0
2854,7&,1,51,42,32,11,22,62,Abstract_Concrete_6tasks_simseq_2seq_listtask_switchAB_fMRI,299988,12435,34152,4,24,144,A3,weapon,5,7&,6289.0187768,6532.0335649,243.0147881,0,0
3789,7&,0,51,41,31,12,21,61,Abstract_Concrete_6tasks_simseq_2seq_listtask_switchAB_fMRI,299988,12435,34152,4,25,145,B4,tools,6,2@,6289.0187768,6542.0303394,253.011562600001,6545.8319666,256.8131898
2598,3#,1,52,41,32,11,22,61,Abstract_Concrete_6tasks_simseq_2seq_listtask_switchAB_fMRI,299988,12435,34152,4,26,146,A2,vest,2,3#,6289.0187768,6553.0291286,264.010351800001,0,0
2611,7&,1,51,41,32,11,21,62,Abstract_Concrete_6tasks_simseq_2seq_listtask_switchAB_fMRI,299988,12435,34152,4,27,147,B2,weapon,5,7&,6289.0187768,6563.0312865,274.0125097,0,0
3252,4$,1,52,42,31,11,22,61,Abstract_Concrete_6tasks_simseq_2seq_listtask_switchAB_fMRI,299988,12435,34152,4,28,148,A1,helmet,1,4$,6289.0187768,6573.030128,284.011351200001,0,0
3843,4$,1,52,41,31,12,22,61,Abstract_Concrete_6tasks_simseq_2seq_listtask_switchAB_fMRI,299988,12435,34152,4,29,149,B3,helmet,1,4$,6289.0187768,6584.0292142,295.0104374,0,0
4050,3#,1,52,41,32,11,21,61,Abstract_Concrete_6tasks_simseq_2seq_listtask_switchAB_fMRI,299988,12435,34152,4,30,150,A2,vest,2,3#,6289.0187768,6595.0301653,306.0113885,0,0
1862,9(,1,52,41,31,12,21,61,Abstract_Concrete_6tasks_simseq_2seq_listtask_switchAB_fMRI,299988,12435,34152,4,31,151,B1,glasses,3,9(,6289.0187768,6607.0307102,318.0119334,0,0
5587,3#,1,51,41,32,12,21,61,Abstract_Concrete_6tasks_simseq_2seq_listtask_switchAB_fMRI,299988,12435,34152,4,32,152,A2,vest,2,3#,6289.0187768,6616.029106,327.0103292,0,0
2735,2@,1,51,41,31,11,21,61,Abstract_Concrete_6tasks_simseq_2seq_listtask_switchAB_fMRI,299988,12435,34152,4,33,153,B4,tools,6,2@,6289.0187768,6629.0294066,340.0106298,0,0
2522,7&,1,51,42,32,12,21,61,Abstract_Concrete_6tasks_simseq_2seq_listtask_switchAB_fMRI,299988,12435,34152,4,34,154,A3,weapon,5,7&,6289.0187768,6639.0296959,350.0109191,0,0
1563,9(,1,52,41,32,11,22,61,Abstract_Concrete_6tasks_simseq_2seq_listtask_switchAB_fMRI,299988,12435,34152,4,35,155,B1,glasses,3,9(,6289.0187768,6649.0305705,360.0117937,0,0
2484,9(,1,52,42,32,12,22,61,Abstract_Concrete_6tasks_simseq_2seq_listtask_switchAB_fMRI,299988,12435,34152,4,36,156,A4,glasses,3,9(,6289.0187768,6658.0300959,369.0113191,0,0
3353,7&,1,51,41,32,12,21,62,Abstract_Concrete_6tasks_simseq_2seq_listtask_switchAB_fMRI,299988,12435,34152,4,37,157,B2,weapon,5,7&,6289.0187768,6668.0302342,379.011457400001,0,0
3840,9(,1,51,42,32,11,22,62,Abstract_Concrete_6tasks_simseq_2seq_listtask_switchAB_fMRI,299988,12435,34152,4,38,158,A4,glasses,3,9(,6289.0187768,6679.0318292,390.013052400001,0,0
3138,2@,1,52,41,32,11,22,61,Abstract_Concrete_6tasks_simseq_2seq_listtask_switchAB_fMRI,299988,12435,34152,4,39,159,B4,tools,6,2@,6289.0187768,6690.0299778,401.011201,0,0
2614,4$,1,51,42,32,12,22,61,Abstract_Concrete_6tasks_simseq_2seq_listtask_switchAB_fMRI,299988,12435,34152,4,40,160,A1,helmet,1,4$,6289.0187768,6701.0318262,412.0130494,0,0
3076,4$,1,52,42,31,12,21,62,Abstract_Concrete_6tasks_simseq_2seq_listtask_switchAB_fMRI,299988,12435,34152,5,1,161,B3,helmet,1,4$,6757.388179,6765.3976341,8.0094551000002,0,0
3779,2@,1,52,42,32,11,22,62,Abstract_Concrete_6tasks_simseq_2seq_listtask_switchAB_fMRI,299988,12435,34152,5,2,162,A5,tools,6,2@,6757.388179,6776.3981097,19.0099307,0,0
2189,2@,1,51,41,32,12,21,61,Abstract_Concrete_6tasks_simseq_2seq_listtask_switchAB_fMRI,299988,12435,34152,5,3,163,B4,tools,6,2@,6757.388179,6787.4019349,30.0137559000004,0,0
3697,2@,1,51,41,32,11,21,62,Abstract_Concrete_6tasks_simseq_2seq_listtask_switchAB_fMRI,299988,12435,34152,5,4,164,A5,tools,6,2@,6757.388179,6797.400822,40.012643,0,0
3375,2@,1,51,41,31,11,22,62,Abstract_Concrete_6tasks_simseq_2seq_listtask_switchAB_fMRI,299988,12435,34152,5,5,165,B4,tools,6,2@,6757.388179,6808.3991376,51.0109586000008,0,0
3634,9(,1,51,41,32,11,21,61,Abstract_Concrete_6tasks_simseq_2seq_listtask_switchAB_fMRI,299988,12435,34152,5,6,166,A4,glasses,3,9(,6757.388179,6819.4020712,62.0138922000006,0,0
4390,3#,1,52,42,32,12,22,62,Abstract_Concrete_6tasks_simseq_2seq_listtask_switchAB_fMRI,299988,12435,34152,5,7,167,B5,vest,2,3#,6757.388179,6830.3996125,73.0114335000007,0,0
1626,2@,1,52,42,31,12,21,62,Abstract_Concrete_6tasks_simseq_2seq_listtask_switchAB_fMRI,299988,12435,34152,5,8,168,A5,tools,6,2@,6757.388179,6842.3996256,85.0114466000005,0,0
3097,9(,1,52,41,32,11,22,62,Abstract_Concrete_6tasks_simseq_2seq_listtask_switchAB_fMRI,299988,12435,34152,5,9,169,B1,glasses,3,9(,6757.388179,6851.3992449,94.0110659000002,0,0
1029,4$,1,52,42,32,12,22,62,Abstract_Concrete_6tasks_simseq_2seq_listtask_switchAB_fMRI,299988,12435,34152,5,10,170,A1,helmet,1,4$,6757.388179,6862.3998116,105.011632600001,0,0
1218,9(,1,52,42,31,11,22,61,Abstract_Concrete_6tasks_simseq_2seq_listtask_switchAB_fMRI,299988,12435,34152,5,11,171,B1,glasses,3,9(,6757.388179,6871.4008502,114.0126712,0,0
980,4$,1,51,42,31,12,22,62,Abstract_Concrete_6tasks_simseq_2seq_listtask_switchAB_fMRI,299988,12435,34152,5,12,172,A1,helmet,1,4$,6757.388179,6880.399829,123.01165,0,0
1139,9(,1,51,41,32,12,22,61,Abstract_Concrete_6tasks_simseq_2seq_listtask_switchAB_fMRI,299988,12435,34152,5,13,173,B1,glasses,3,9(,6757.388179,6888.3986713,131.010492300001,0,0
2913,9(,1,52,41,31,11,21,62,Abstract_Concrete_6tasks_simseq_2seq_listtask_switchAB_fMRI,299988,12435,34152,5,14,174,A4,glasses,3,9(,6757.388179,6897.4016888,140.0135098,0,0
2758,7&,1,51,41,32,11,22,62,Abstract_Concrete_6tasks_simseq_2seq_listtask_switchAB_fMRI,299988,12435,34152,5,15,175,B2,weapon,5,7&,6757.388179,6907.4000566,150.011877600001,0,0
1588,9(,1,52,41,31,11,21,62,Abstract_Concrete_6tasks_simseq_2seq_listtask_switchAB_fMRI,299988,12435,34152,5,16,176,A4,glasses,3,9(,6757.388179,6917.3999035,160.0117245,0,0
3228,2@,1,52,41,31,12,21,62,Abstract_Concrete_6tasks_simseq_2seq_listtask_switchAB_fMRI,299988,12435,34152,5,17,177,B4,tools,6,2@,6757.388179,6926.4017281,169.0135491,0,0
2270,7&,1,51,41,32,11,22,61,Abstract_Concrete_6tasks_simseq_2seq_listtask_switchAB_fMRI,299988,12435,34152,5,18,178,A3,weapon,5,7&,6757.388179,6937.4006305,180.012451500001,0,0
1949,3#,1,52,42,31,11,22,61,Abstract_Concrete_6tasks_simseq_2seq_listtask_switchAB_fMRI,299988,12435,34152,5,19,179,B5,vest,2,3#,6757.388179,6947.4002297,190.0120507,0,0
1550,4$,1,51,42,32,11,21,62,Abstract_Concrete_6tasks_simseq_2seq_listtask_switchAB_fMRI,299988,12435,34152,5,20,180,A1,helmet,1,4$,6757.388179,6956.3991165,199.0109375,0,0
2711,4$,1,51,42,31,11,22,61,Abstract_Concrete_6tasks_simseq_2seq_listtask_switchAB_fMRI,299988,12435,34152,5,21,181,B3,helmet,1,4$,6757.388179,6965.3978208,208.0096418,0,0
3056,3#,1,52,42,32,12,21,61,Abstract_Concrete_6tasks_simseq_2seq_listtask_switchAB_fMRI,299988,12435,34152,5,22,182,A2,vest,2,3#,6757.388179,6975.3997679,218.011588900001,0,0
1387,7&,1,51,42,32,12,21,61,Abstract_Concrete_6tasks_simseq_2seq_listtask_switchAB_fMRI,299988,12435,34152,5,23,183,B2,weapon,5,7&,6757.388179,6986.399819,229.011640000001,0,0
1899,4$,0,51,41,31,11,22,62,Abstract_Concrete_6tasks_simseq_2seq_listtask_switchAB_fMRI,299988,12435,34152,5,24,184,A3,weapon,5,7&,6757.388179,6995.4014426,238.013263600001,6997.3162408,239.9280618
5306,2@,1,52,41,32,11,21,62,Abstract_Concrete_6tasks_simseq_2seq_listtask_switchAB_fMRI,299988,12435,34152,5,25,185,B4,tools,6,2@,6757.388179,7004.3980826,247.0099036,0,0
1822,7&,1,51,41,31,12,22,62,Abstract_Concrete_6tasks_simseq_2seq_listtask_switchAB_fMRI,299988,12435,34152,5,26,186,A3,weapon,5,7&,6757.388179,7017.4017154,260.013536400001,0,0
1388,9(,1,52,41,31,11,22,61,Abstract_Concrete_6tasks_simseq_2seq_listtask_switchAB_fMRI,299988,12435,34152,5,27,187,B1,glasses,3,9(,6757.388179,7026.4006702,269.0124912,0,0
4396,2@,1,51,42,32,11,21,62,Abstract_Concrete_6tasks_simseq_2seq_listtask_switchAB_fMRI,299988,12435,34152,5,28,188,A5,tools,6,2@,6757.388179,7035.4017759,278.0135969,0,0
2940,7&,1,51,42,32,11,21,62,Abstract_Concrete_6tasks_simseq_2seq_listtask_switchAB_fMRI,299988,12435,34152,5,29,189,B2,weapon,5,7&,6757.388179,7047.3999466,290.0117676,0,0
4642,9(,1,52,41,32,11,22,62,Abstract_Concrete_6tasks_simseq_2seq_listtask_switchAB_fMRI,299988,12435,34152,5,30,190,A4,glasses,3,9(,6757.388179,7057.3984415,300.010262500001,0,0
1996,4$,1,51,41,32,12,22,61,Abstract_Concrete_6tasks_simseq_2seq_listtask_switchAB_fMRI,299988,12435,34152,5,31,191,B3,helmet,1,4$,6757.388179,7069.3990116,312.010832600001,0,0
4770,7&,1,51,41,31,11,21,61,Abstract_Concrete_6tasks_simseq_2seq_listtask_switchAB_fMRI,299988,12435,34152,5,32,192,A3,weapon,5,7&,6757.388179,7079.3991044,322.010925400001,0,0
1930,3#,1,51,42,32,12,22,62,Abstract_Concrete_6tasks_simseq_2seq_listtask_switchAB_fMRI,299988,12435,34152,5,33,193,B5,vest,2,3#,6757.388179,7091.4008041,334.0126251,0,0
1816,4$,1,52,41,31,11,21,62,Abstract_Concrete_6tasks_simseq_2seq_listtask_switchAB_fMRI,299988,12435,34152,5,34,194,A1,helmet,1,4$,6757.388179,7100.4009357,343.012756700001,0,0
2102,3#,1,52,41,32,12,21,61,Abstract_Concrete_6tasks_simseq_2seq_listtask_switchAB_fMRI,299988,12435,34152,5,35,195,B5,vest,2,3#,6757.388179,7109.3995823,352.0114033,0,0
2741,3#,1,52,42,31,12,22,62,Abstract_Concrete_6tasks_simseq_2seq_listtask_switchAB_fMRI,299988,12435,34152,5,36,196,A2,vest,2,3#,6757.388179,7119.3999399,362.011760900001,0,0
2524,7&,1,51,41,31,11,22,61,Abstract_Concrete_6tasks_simseq_2seq_listtask_switchAB_fMRI,299988,12435,34152,5,37,197,B2,weapon,5,7&,6757.388179,7129.3980581,372.0098791,0,0
2004,3#,1,51,41,32,11,22,62,Abstract_Concrete_6tasks_simseq_2seq_listtask_switchAB_fMRI,299988,12435,34152,5,38,198,A2,vest,2,3#,6757.388179,7139.3998825,382.0117035,0,0
3896,3#,0,52,41,31,11,21,62,Abstract_Concrete_6tasks_simseq_2seq_listtask_switchAB_fMRI,299988,12435,34152,5,39,199,B3,helmet,1,4$,6757.388179,7149.4000658,392.011886800001,7153.3107809,395.922601900001
2317,3#,1,51,42,31,11,21,62,Abstract_Concrete_6tasks_simseq_2seq_listtask_switchAB_fMRI,299988,12435,34152,5,40,200,A2,vest,2,3#,6757.388179,7160.3981911,403.0100121,0,0
2087,3#,1,51,41,31,12,21,62,Abstract_Concrete_6tasks_simseq_2seq_listtask_switchAB_fMRI,299988,12435,34152,6,1,201,A2,vest,2,3#,7225.7034703,7233.7161307,8.01266039999973,0,0
1253,9(,1,52,41,31,12,22,61,Abstract_Concrete_6tasks_simseq_2seq_listtask_switchAB_fMRI,299988,12435,34152,6,2,202,B1,glasses,3,9(,7225.7034703,7243.7126642,18.0091939000004,0,0
1826,3#,1,51,42,32,12,22,62,Abstract_Concrete_6tasks_simseq_2seq_listtask_switchAB_fMRI,299988,12435,34152,6,3,203,A2,vest,2,3#,7225.7034703,7252.7138289,27.0103586000005,0,0
2637,7&,1,52,41,32,12,22,62,Abstract_Concrete_6tasks_simseq_2seq_listtask_switchAB_fMRI,299988,12435,34152,6,4,204,B2,weapon,5,7&,7225.7034703,7261.7142124,36.0107421000002,0,0
4724,2@,1,52,41,32,11,21,62,Abstract_Concrete_6tasks_simseq_2seq_listtask_switchAB_fMRI,299988,12435,34152,6,5,205,A5,tools,6,2@,7225.7034703,7271.7135982,46.0101279,0,0
2010,7&,1,51,41,31,11,22,61,Abstract_Concrete_6tasks_simseq_2seq_listtask_switchAB_fMRI,299988,12435,34152,6,6,206,B2,weapon,5,7&,7225.7034703,7283.7151551,58.0116847999998,0,0
2519,7&,1,51,41,31,11,22,62,Abstract_Concrete_6tasks_simseq_2seq_listtask_switchAB_fMRI,299988,12435,34152,6,7,207,A3,weapon,5,7&,7225.7034703,7293.7144473,68.0109769999999,0,0
3141,4$,1,51,42,31,11,22,62,Abstract_Concrete_6tasks_simseq_2seq_listtask_switchAB_fMRI,299988,12435,34152,6,8,208,B3,helmet,1,4$,7225.7034703,7303.7137552,78.0102849000004,0,0
2763,7&,1,52,42,31,11,22,62,Abstract_Concrete_6tasks_simseq_2seq_listtask_switchAB_fMRI,299988,12435,34152,6,9,209,A3,weapon,5,7&,7225.7034703,7314.7169854,89.0135151000004,0,0
5529,2@,1,51,41,32,11,21,62,Abstract_Concrete_6tasks_simseq_2seq_listtask_switchAB_fMRI,299988,12435,34152,6,10,210,B4,tools,6,2@,7225.7034703,7324.7151517,99.0116814000003,0,0
3242,4$,1,51,41,31,11,21,61,Abstract_Concrete_6tasks_simseq_2seq_listtask_switchAB_fMRI,299988,12435,34152,6,11,211,A1,helmet,1,4$,7225.7034703,7337.7154519,112.0119816,0,0
3100,2@,1,51,42,32,11,21,61,Abstract_Concrete_6tasks_simseq_2seq_listtask_switchAB_fMRI,299988,12435,34152,6,12,212,B4,tools,6,2@,7225.7034703,7348.7148743,123.011404,0,0
3548,9(,1,51,42,31,11,21,62,Abstract_Concrete_6tasks_simseq_2seq_listtask_switchAB_fMRI,299988,12435,34152,6,13,213,A4,glasses,3,9(,7225.7034703,7359.7152848,134.0118145,0,0
1273,9(,1,52,41,31,11,22,62,Abstract_Concrete_6tasks_simseq_2seq_listtask_switchAB_fMRI,299988,12435,34152,6,14,214,B1,glasses,3,9(,7225.7034703,7370.7153251,145.0118548,0,0
4269,9(,1,51,41,32,12,21,61,Abstract_Concrete_6tasks_simseq_2seq_listtask_switchAB_fMRI,299988,12435,34152,6,15,215,A4,glasses,3,9(,7225.7034703,7379.7150817,154.0116114,0,0
2902,4$,1,51,42,31,12,21,62,Abstract_Concrete_6tasks_simseq_2seq_listtask_switchAB_fMRI,299988,12435,34152,6,16,216,B3,helmet,1,4$,7225.7034703,7391.7171689,166.0136986,0,0
2948,2@,1,51,42,31,11,21,61,Abstract_Concrete_6tasks_simseq_2seq_listtask_switchAB_fMRI,299988,12435,34152,6,17,217,A5,tools,6,2@,7225.7034703,7401.7153143,176.011844,0,0
3534,3#,1,52,41,32,12,21,62,Abstract_Concrete_6tasks_simseq_2seq_listtask_switchAB_fMRI,299988,12435,34152,6,18,218,B5,vest,2,3#,7225.7034703,7411.7160989,186.0126286,0,0
914,4$,1,52,41,32,12,21,61,Abstract_Concrete_6tasks_simseq_2seq_listtask_switchAB_fMRI,299988,12435,34152,6,19,219,A1,helmet,1,4$,7225.7034703,7422.7165226,197.0130523,0,0
5350,2@,1,51,41,32,12,21,62,Abstract_Concrete_6tasks_simseq_2seq_listtask_switchAB_fMRI,299988,12435,34152,6,20,220,B4,tools,6,2@,7225.7034703,7430.7148669,205.0113966,0,0
4990,4$,1,51,41,31,12,22,62,Abstract_Concrete_6tasks_simseq_2seq_listtask_switchAB_fMRI,299988,12435,34152,6,21,221,A1,helmet,1,4$,7225.7034703,7443.7156305,218.0121602,0,0
3595,7&,1,51,42,32,11,21,61,Abstract_Concrete_6tasks_simseq_2seq_listtask_switchAB_fMRI,299988,12435,34152,6,22,222,B2,weapon,5,7&,7225.7034703,7456.7171905,231.0137202,0,0
2171,9(,1,51,42,31,11,21,62,Abstract_Concrete_6tasks_simseq_2seq_listtask_switchAB_fMRI,299988,12435,34152,6,23,223,A4,glasses,3,9(,7225.7034703,7467.7171097,242.0136394,0,0
3638,2@,1,51,41,31,12,21,61,Abstract_Concrete_6tasks_simseq_2seq_listtask_switchAB_fMRI,299988,12435,34152,6,24,224,B4,tools,6,2@,7225.7034703,7477.7174526,252.0139823,0,0
3043,4$,0,51,42,32,11,21,61,Abstract_Concrete_6tasks_simseq_2seq_listtask_switchAB_fMRI,299988,12435,34152,6,25,225,A2,vest,2,3#,7225.7034703,7488.7143934,263.0109231,7491.7743623,266.070892
1850,4$,1,51,41,32,12,21,62,Abstract_Concrete_6tasks_simseq_2seq_listtask_switchAB_fMRI,299988,12435,34152,6,26,226,B3,helmet,1,4$,7225.7034703,7499.7143704,274.0109001,0,0
2843,2@,1,52,42,32,12,21,62,Abstract_Concrete_6tasks_simseq_2seq_listtask_switchAB_fMRI,299988,12435,34152,6,27,227,A5,tools,6,2@,7225.7034703,7508.7143044,283.0108341,0,0
4344,4$,1,51,41,31,12,21,61,Abstract_Concrete_6tasks_simseq_2seq_listtask_switchAB_fMRI,299988,12435,34152,6,28,228,B3,helmet,1,4$,7225.7034703,7518.7147379,293.0112676,0,0
1869,7&,1,52,42,32,11,22,61,Abstract_Concrete_6tasks_simseq_2seq_listtask_switchAB_fMRI,299988,12435,34152,6,29,229,A3,weapon,5,7&,7225.7034703,7530.7152473,305.011777,0,0
1951,3#,1,52,42,31,12,21,62,Abstract_Concrete_6tasks_simseq_2seq_listtask_switchAB_fMRI,299988,12435,34152,6,30,230,B5,vest,2,3#,7225.7034703,7539.716066,314.0125957,0,0
2390,3#,1,51,42,31,11,22,62,Abstract_Concrete_6tasks_simseq_2seq_listtask_switchAB_fMRI,299988,12435,34152,6,31,231,A2,vest,2,3#,7225.7034703,7548.7147701,323.0112998,0,0
1611,3#,1,51,42,31,11,22,61,Abstract_Concrete_6tasks_simseq_2seq_listtask_switchAB_fMRI,299988,12435,34152,6,32,232,B5,vest,2,3#,7225.7034703,7558.7135124,333.0100421,0,0
2189,2@,1,51,41,32,12,21,61,Abstract_Concrete_6tasks_simseq_2seq_listtask_switchAB_fMRI,299988,12435,34152,6,33,233,A5,tools,6,2@,7225.7034703,7567.7154008,342.0119305,0,0
2364,7&,1,52,42,31,11,22,62,Abstract_Concrete_6tasks_simseq_2seq_listtask_switchAB_fMRI,299988,12435,34152,6,34,234,B2,weapon,5,7&,7225.7034703,7577.7155212,352.0120509,0,0
6806,9(,1,51,41,31,11,22,61,Abstract_Concrete_6tasks_simseq_2seq_listtask_switchAB_fMRI,299988,12435,34152,6,35,235,A4,glasses,3,9(,7225.7034703,7587.7140329,362.0105626,0,0
1223,4$,0,52,42,32,11,21,61,Abstract_Concrete_6tasks_simseq_2seq_listtask_switchAB_fMRI,299988,12435,34152,6,36,236,B1,glasses,3,9(,7225.7034703,7601.7146497,376.0111794,7602.9498482,377.2463779
2439,7&,1,52,42,32,11,22,62,Abstract_Concrete_6tasks_simseq_2seq_listtask_switchAB_fMRI,299988,12435,34152,6,37,237,A3,weapon,5,7&,7225.7034703,7610.713326,385.0098557,0,0
1405,3#,1,51,41,32,11,21,61,Abstract_Concrete_6tasks_simseq_2seq_listtask_switchAB_fMRI,299988,12435,34152,6,38,238,B5,vest,2,3#,7225.7034703,7620.7143574,395.0108871,0,0
1929,4$,1,52,41,31,11,22,62,Abstract_Concrete_6tasks_simseq_2seq_listtask_switchAB_fMRI,299988,12435,34152,6,39,239,A1,helmet,1,4$,7225.7034703,7629.7164161,404.0129458,0,0
890,4$,0,51,41,32,12,21,61,Abstract_Concrete_6tasks_simseq_2seq_listtask_switchAB_fMRI,299988,12435,34152,6,40,240,B1,glasses,3,9(,7225.7034703,7638.714764,413.0112937,7639.6141647,413.9106944
