rt1,resp1,correct1,features_1,features_2,features_3,features_4,features_5,features_6,ExpName,subNo,seqA,seqB,block,trial,trialnum,cuetype,task,subtaskcode,corr_resp1,onsetTime_s,onsetTime_cue,onset_cue,onsetTime_cue_fb,onset_cue_fb
5951,9(,1,21,32,51,62,11,41,Abstract_Concrete_6tasks_simseq_2seq_listtask_switchAB_fMRI,407180,12435,34152,1,1,1,A3,weapon,5,9(,4504.7855805,4512.7980306,8.01245010000002,0,0
2551,9(,1,22,31,51,62,11,42,Abstract_Concrete_6tasks_simseq_2seq_listtask_switchAB_fMRI,407180,12435,34152,1,2,2,B2,weapon,5,9(,4504.7855805,4525.7979369,21.0123564000005,0,0
7030,9(,1,21,32,51,61,12,41,Abstract_Concrete_6tasks_simseq_2seq_listtask_switchAB_fMRI,407180,12435,34152,1,3,3,A3,weapon,5,9(,4504.7855805,4535.7955509,31.0099704000004,0,0
2623,7&,1,21,32,51,61,12,41,Abstract_Concrete_6tasks_simseq_2seq_listtask_switchAB_fMRI,407180,12435,34152,1,4,4,B5,vest,2,7&,4504.7855805,4550.7979521,46.0123715999998,0,0
3446,9(,1,21,31,52,62,11,42,Abstract_Concrete_6tasks_simseq_2seq_listtask_switchAB_fMRI,407180,12435,34152,1,5,5,A3,weapon,5,9(,4504.7855805,4560.7961156,56.0105351000002,0,0
3353,8*,1,21,32,52,61,11,41,Abstract_Concrete_6tasks_simseq_2seq_listtask_switchAB_fMRI,407180,12435,34152,1,6,6,B1,glasses,3,8*,4504.7855805,4571.7980377,67.0124572000004,0,0
0,,0,21,32,52,61,12,41,Abstract_Concrete_6tasks_simseq_2seq_listtask_switchAB_fMRI,407180,12435,34152,1,7,7,A5,tools,6,4$,4504.7855805,4582.7974686,78.0118880999999,4591.8264876,87.0409071000004
3489,9(,1,21,31,52,61,12,42,Abstract_Concrete_6tasks_simseq_2seq_listtask_switchAB_fMRI,407180,12435,34152,1,8,8,B2,weapon,5,9(,4504.7855805,4599.7972796,95.0116991000004,0,0
2795,4$,1,22,32,51,62,12,41,Abstract_Concrete_6tasks_simseq_2seq_listtask_switchAB_fMRI,407180,12435,34152,1,9,9,A5,tools,6,4$,4504.7855805,4610.7969679,106.0113874,0,0
2887,7&,1,22,32,51,62,11,42,Abstract_Concrete_6tasks_simseq_2seq_listtask_switchAB_fMRI,407180,12435,34152,1,10,10,B5,vest,2,7&,4504.7855805,4620.798235,116.0126545,0,0
3716,9(,1,21,32,51,61,12,41,Abstract_Concrete_6tasks_simseq_2seq_listtask_switchAB_fMRI,407180,12435,34152,1,11,11,A3,weapon,5,9(,4504.7855805,4630.7972832,126.0117027,0,0
2588,7&,1,21,31,51,62,12,41,Abstract_Concrete_6tasks_simseq_2seq_listtask_switchAB_fMRI,407180,12435,34152,1,12,12,B5,vest,2,7&,4504.7855805,4641.7988131,137.0132326,0,0
3316,3#,1,22,31,51,62,12,41,Abstract_Concrete_6tasks_simseq_2seq_listtask_switchAB_fMRI,407180,12435,34152,1,13,13,A1,helmet,1,3#,4504.7855805,4651.7975124,147.0119319,0,0
5202,4$,1,21,32,52,62,11,42,Abstract_Concrete_6tasks_simseq_2seq_listtask_switchAB_fMRI,407180,12435,34152,1,14,14,B4,tools,6,4$,4504.7855805,4662.7959801,158.0103996,0,0
7014,8*,1,21,31,51,62,11,41,Abstract_Concrete_6tasks_simseq_2seq_listtask_switchAB_fMRI,407180,12435,34152,1,15,15,A4,glasses,3,8*,4504.7855805,4675.798159,171.0125785,0,0
6730,4$,1,22,32,51,61,12,42,Abstract_Concrete_6tasks_simseq_2seq_listtask_switchAB_fMRI,407180,12435,34152,1,16,16,B4,tools,6,4$,4504.7855805,4690.7977628,186.0121823,0,0
5439,4$,1,22,32,52,62,11,42,Abstract_Concrete_6tasks_simseq_2seq_listtask_switchAB_fMRI,407180,12435,34152,1,17,17,A5,tools,6,4$,4504.7855805,4704.7972278,200.0116473,0,0
4421,3#,1,22,31,51,62,12,41,Abstract_Concrete_6tasks_simseq_2seq_listtask_switchAB_fMRI,407180,12435,34152,1,18,18,B3,helmet,1,3#,4504.7855805,4717.7978331,213.0122526,0,0
0,,0,22,31,52,62,12,41,Abstract_Concrete_6tasks_simseq_2seq_listtask_switchAB_fMRI,407180,12435,34152,1,19,19,A4,glasses,3,8*,4504.7855805,4729.7987118,225.0131313,4738.8159281,234.0303476
3666,9(,1,22,32,52,62,11,41,Abstract_Concrete_6tasks_simseq_2seq_listtask_switchAB_fMRI,407180,12435,34152,1,20,20,B2,weapon,5,9(,4504.7855805,4746.796056,242.0104755,0,0
2227,3#,1,21,31,51,62,12,42,Abstract_Concrete_6tasks_simseq_2seq_listtask_switchAB_fMRI,407180,12435,34152,1,21,21,A1,helmet,1,3#,4504.7855805,4757.7974072,253.0118267,0,0
2036,8*,1,21,32,52,61,11,41,Abstract_Concrete_6tasks_simseq_2seq_listtask_switchAB_fMRI,407180,12435,34152,1,22,22,B1,glasses,3,8*,4504.7855805,4767.7964124,263.0108319,0,0
1464,3#,1,22,32,51,62,12,42,Abstract_Concrete_6tasks_simseq_2seq_listtask_switchAB_fMRI,407180,12435,34152,1,23,23,A1,helmet,1,3#,4504.7855805,4777.7984611,273.0128806,0,0
5253,3#,1,22,32,51,62,11,42,Abstract_Concrete_6tasks_simseq_2seq_listtask_switchAB_fMRI,407180,12435,34152,1,24,24,B3,helmet,1,3#,4504.7855805,4786.7985842,282.0130037,0,0
2150,3#,1,21,32,52,62,12,41,Abstract_Concrete_6tasks_simseq_2seq_listtask_switchAB_fMRI,407180,12435,34152,1,25,25,A1,helmet,1,3#,4504.7855805,4799.7987211,295.0131406,0,0
3762,4$,1,21,32,52,62,12,42,Abstract_Concrete_6tasks_simseq_2seq_listtask_switchAB_fMRI,407180,12435,34152,1,26,26,B4,tools,6,4$,4504.7855805,4809.7974123,305.0118318,0,0
4763,4$,1,22,31,51,61,12,41,Abstract_Concrete_6tasks_simseq_2seq_listtask_switchAB_fMRI,407180,12435,34152,1,27,27,A5,tools,6,4$,4504.7855805,4820.7960152,316.0104347,0,0
2937,4$,1,22,32,52,61,12,41,Abstract_Concrete_6tasks_simseq_2seq_listtask_switchAB_fMRI,407180,12435,34152,1,28,28,B4,tools,6,4$,4504.7855805,4832.7960397,328.0104592,0,0
2340,7&,1,22,31,51,61,11,41,Abstract_Concrete_6tasks_simseq_2seq_listtask_switchAB_fMRI,407180,12435,34152,1,29,29,A2,vest,2,7&,4504.7855805,4842.7957092,338.0101287,0,0
3532,3#,1,21,31,51,61,11,41,Abstract_Concrete_6tasks_simseq_2seq_listtask_switchAB_fMRI,407180,12435,34152,1,30,30,B3,helmet,1,3#,4504.7855805,4852.7976364,348.0120559,0,0
2389,7&,1,22,31,51,61,12,41,Abstract_Concrete_6tasks_simseq_2seq_listtask_switchAB_fMRI,407180,12435,34152,1,31,31,A2,vest,2,7&,4504.7855805,4863.798249,359.0126685,0,0
3585,3#,1,21,31,52,62,11,41,Abstract_Concrete_6tasks_simseq_2seq_listtask_switchAB_fMRI,407180,12435,34152,1,32,32,B3,helmet,1,3#,4504.7855805,4873.7971364,369.011555900001,0,0
2975,7&,1,22,32,52,62,12,42,Abstract_Concrete_6tasks_simseq_2seq_listtask_switchAB_fMRI,407180,12435,34152,1,33,33,A2,vest,2,7&,4504.7855805,4884.7970535,380.011473,0,0
2963,7&,1,22,32,52,62,11,41,Abstract_Concrete_6tasks_simseq_2seq_listtask_switchAB_fMRI,407180,12435,34152,1,34,34,B5,vest,2,7&,4504.7855805,4894.7959409,390.0103604,0,0
5785,8*,1,21,32,52,62,11,42,Abstract_Concrete_6tasks_simseq_2seq_listtask_switchAB_fMRI,407180,12435,34152,1,35,35,A4,glasses,3,8*,4504.7855805,4904.7969376,400.0113571,0,0
2907,9(,1,21,32,52,62,11,42,Abstract_Concrete_6tasks_simseq_2seq_listtask_switchAB_fMRI,407180,12435,34152,1,36,36,B2,weapon,5,9(,4504.7855805,4917.7970493,413.0114688,0,0
2857,7&,1,21,32,52,61,11,42,Abstract_Concrete_6tasks_simseq_2seq_listtask_switchAB_fMRI,407180,12435,34152,1,37,37,A2,vest,2,7&,4504.7855805,4927.7962,423.0106195,0,0
3421,8*,1,21,32,51,62,11,42,Abstract_Concrete_6tasks_simseq_2seq_listtask_switchAB_fMRI,407180,12435,34152,1,38,38,B1,glasses,3,8*,4504.7855805,4937.7964468,433.0108663,0,0
6513,8*,1,21,32,51,61,12,42,Abstract_Concrete_6tasks_simseq_2seq_listtask_switchAB_fMRI,407180,12435,34152,1,39,39,A4,glasses,3,8*,4504.7855805,4948.7972431,444.0116626,0,0
1783,8*,1,21,31,52,61,11,41,Abstract_Concrete_6tasks_simseq_2seq_listtask_switchAB_fMRI,407180,12435,34152,1,40,40,B1,glasses,3,8*,4504.7855805,4962.7986059,458.013025400001,0,0
3340,8*,1,22,32,51,62,11,41,Abstract_Concrete_6tasks_simseq_2seq_listtask_switchAB_fMRI,407180,12435,34152,2,1,41,B1,glasses,3,8*,5064.8499743,5072.8615252,8.01155089999975,0,0
6310,4$,0,22,32,51,61,12,42,Abstract_Concrete_6tasks_simseq_2seq_listtask_switchAB_fMRI,407180,12435,34152,2,2,42,A4,glasses,3,8*,5064.8499743,5083.8615978,19.0116234999996,5090.194697,25.3447226999997
1675,8*,1,21,31,52,62,11,42,Abstract_Concrete_6tasks_simseq_2seq_listtask_switchAB_fMRI,407180,12435,34152,2,3,43,B1,glasses,3,8*,5064.8499743,5097.8610289,33.0110545999996,0,0
4082,9(,1,21,31,51,62,12,41,Abstract_Concrete_6tasks_simseq_2seq_listtask_switchAB_fMRI,407180,12435,34152,2,4,44,A3,weapon,5,9(,5064.8499743,5106.8620602,42.0120858999999,0,0
3639,3#,1,22,32,52,62,11,41,Abstract_Concrete_6tasks_simseq_2seq_listtask_switchAB_fMRI,407180,12435,34152,2,5,45,B3,helmet,1,3#,5064.8499743,5118.8621679,54.0121935999996,0,0
2769,4$,1,21,32,52,61,11,42,Abstract_Concrete_6tasks_simseq_2seq_listtask_switchAB_fMRI,407180,12435,34152,2,6,46,A5,tools,6,4$,5064.8499743,5129.8622678,65.0122934999999,0,0
2134,9(,1,22,31,52,62,11,41,Abstract_Concrete_6tasks_simseq_2seq_listtask_switchAB_fMRI,407180,12435,34152,2,7,47,B2,weapon,5,9(,5064.8499743,5139.862056,75.0120816999997,0,0
2216,3#,1,21,32,52,61,11,42,Abstract_Concrete_6tasks_simseq_2seq_listtask_switchAB_fMRI,407180,12435,34152,2,8,48,A1,helmet,1,3#,5064.8499743,5149.8631036,85.0131292999995,0,0
4001,3#,1,21,31,52,62,12,42,Abstract_Concrete_6tasks_simseq_2seq_listtask_switchAB_fMRI,407180,12435,34152,2,9,49,B3,helmet,1,3#,5064.8499743,5159.8621994,95.0122250999993,0,0
5390,9(,1,21,32,52,62,11,42,Abstract_Concrete_6tasks_simseq_2seq_listtask_switchAB_fMRI,407180,12435,34152,2,10,50,A3,weapon,5,9(,5064.8499743,5171.8628928,107.0129185,0,0
4187,4$,1,22,32,52,62,11,42,Abstract_Concrete_6tasks_simseq_2seq_listtask_switchAB_fMRI,407180,12435,34152,2,11,51,B4,tools,6,4$,5064.8499743,5184.8620624,120.012088099999,0,0
2330,3#,1,21,32,52,61,11,41,Abstract_Concrete_6tasks_simseq_2seq_listtask_switchAB_fMRI,407180,12435,34152,2,12,52,A1,helmet,1,3#,5064.8499743,5196.8624959,132.0125216,0,0
3301,9(,1,22,32,51,62,12,41,Abstract_Concrete_6tasks_simseq_2seq_listtask_switchAB_fMRI,407180,12435,34152,2,13,53,B2,weapon,5,9(,5064.8499743,5206.8630311,142.0130568,0,0
2863,4$,1,21,31,52,62,12,41,Abstract_Concrete_6tasks_simseq_2seq_listtask_switchAB_fMRI,407180,12435,34152,2,14,54,A5,tools,6,4$,5064.8499743,5217.8636609,153.013686599999,0,0
1830,8*,1,21,31,52,62,12,42,Abstract_Concrete_6tasks_simseq_2seq_listtask_switchAB_fMRI,407180,12435,34152,2,15,55,B1,glasses,3,8*,5064.8499743,5227.8608907,163.0109164,0,0
5117,9(,1,22,32,51,62,11,42,Abstract_Concrete_6tasks_simseq_2seq_listtask_switchAB_fMRI,407180,12435,34152,2,16,56,A3,weapon,5,9(,5064.8499743,5236.8616136,172.0116393,0,0
4379,7&,1,22,31,52,61,12,42,Abstract_Concrete_6tasks_simseq_2seq_listtask_switchAB_fMRI,407180,12435,34152,2,17,57,B5,vest,2,7&,5064.8499743,5249.8603002,185.0103259,0,0
4252,9(,1,21,32,51,61,11,42,Abstract_Concrete_6tasks_simseq_2seq_listtask_switchAB_fMRI,407180,12435,34152,2,18,58,A3,weapon,5,9(,5064.8499743,5261.8633802,197.0134059,0,0
2764,9(,1,21,32,52,62,12,41,Abstract_Concrete_6tasks_simseq_2seq_listtask_switchAB_fMRI,407180,12435,34152,2,19,59,B2,weapon,5,9(,5064.8499743,5273.862488,209.0125137,0,0
3525,4$,1,21,32,51,62,12,41,Abstract_Concrete_6tasks_simseq_2seq_listtask_switchAB_fMRI,407180,12435,34152,2,20,60,A5,tools,6,4$,5064.8499743,5283.8614391,219.0114648,0,0
2597,3#,1,21,32,52,62,12,41,Abstract_Concrete_6tasks_simseq_2seq_listtask_switchAB_fMRI,407180,12435,34152,2,21,61,B3,helmet,1,3#,5064.8499743,5294.8601429,230.0101686,0,0
2010,7&,1,22,31,52,61,11,41,Abstract_Concrete_6tasks_simseq_2seq_listtask_switchAB_fMRI,407180,12435,34152,2,22,62,A2,vest,2,7&,5064.8499743,5304.8607094,240.0107351,0,0
3076,9(,1,22,32,52,61,11,41,Abstract_Concrete_6tasks_simseq_2seq_listtask_switchAB_fMRI,407180,12435,34152,2,23,63,B2,weapon,5,9(,5064.8499743,5314.8610455,250.0110712,0,0
1427,7&,1,21,32,51,62,12,42,Abstract_Concrete_6tasks_simseq_2seq_listtask_switchAB_fMRI,407180,12435,34152,2,24,64,A2,vest,2,7&,5064.8499743,5325.8642003,261.014226,0,0
1357,8*,1,22,32,51,62,11,42,Abstract_Concrete_6tasks_simseq_2seq_listtask_switchAB_fMRI,407180,12435,34152,2,25,65,B1,glasses,3,8*,5064.8499743,5334.8626459,270.0126716,0,0
4505,8*,1,21,31,52,62,11,41,Abstract_Concrete_6tasks_simseq_2seq_listtask_switchAB_fMRI,407180,12435,34152,2,26,66,A4,glasses,3,8*,5064.8499743,5343.8628789,279.0129046,0,0
2254,8*,0,22,31,52,62,11,41,Abstract_Concrete_6tasks_simseq_2seq_listtask_switchAB_fMRI,407180,12435,34152,2,27,67,B4,tools,6,4$,5064.8499743,5355.8618249,291.0118506,5358.1303626,293.2803883
2091,7&,1,22,32,51,62,12,41,Abstract_Concrete_6tasks_simseq_2seq_listtask_switchAB_fMRI,407180,12435,34152,2,28,68,A2,vest,2,7&,5064.8499743,5365.862543,301.0125687,0,0
3612,7&,1,21,31,52,62,11,41,Abstract_Concrete_6tasks_simseq_2seq_listtask_switchAB_fMRI,407180,12435,34152,2,29,69,B5,vest,2,7&,5064.8499743,5375.8617549,311.0117806,0,0
4499,8*,1,22,31,52,61,12,42,Abstract_Concrete_6tasks_simseq_2seq_listtask_switchAB_fMRI,407180,12435,34152,2,30,70,A4,glasses,3,8*,5064.8499743,5386.8613231,322.0113488,0,0
1701,7&,1,22,32,51,62,11,42,Abstract_Concrete_6tasks_simseq_2seq_listtask_switchAB_fMRI,407180,12435,34152,2,31,71,B5,vest,2,7&,5064.8499743,5398.8616214,334.0116471,0,0
1322,7&,1,21,32,52,61,12,41,Abstract_Concrete_6tasks_simseq_2seq_listtask_switchAB_fMRI,407180,12435,34152,2,32,72,A2,vest,2,7&,5064.8499743,5407.8611997,343.0112254,0,0
2901,4$,1,22,31,52,62,11,42,Abstract_Concrete_6tasks_simseq_2seq_listtask_switchAB_fMRI,407180,12435,34152,2,33,73,B4,tools,6,4$,5064.8499743,5416.8635576,352.013583299999,0,0
1520,3#,1,21,31,52,61,11,42,Abstract_Concrete_6tasks_simseq_2seq_listtask_switchAB_fMRI,407180,12435,34152,2,34,74,A1,helmet,1,3#,5064.8499743,5426.862493,362.012518699999,0,0
1515,7&,1,22,32,52,61,11,42,Abstract_Concrete_6tasks_simseq_2seq_listtask_switchAB_fMRI,407180,12435,34152,2,35,75,B5,vest,2,7&,5064.8499743,5435.8616326,371.0116583,0,0
7884,8*,1,22,31,51,62,11,41,Abstract_Concrete_6tasks_simseq_2seq_listtask_switchAB_fMRI,407180,12435,34152,2,36,76,A4,glasses,3,8*,5064.8499743,5444.8605055,380.0105312,0,0
3526,3#,1,22,31,51,61,11,42,Abstract_Concrete_6tasks_simseq_2seq_listtask_switchAB_fMRI,407180,12435,34152,2,37,77,B3,helmet,1,3#,5064.8499743,5459.8624769,395.0125026,0,0
1328,3#,1,22,31,51,62,12,41,Abstract_Concrete_6tasks_simseq_2seq_listtask_switchAB_fMRI,407180,12435,34152,2,38,78,A1,helmet,1,3#,5064.8499743,5470.8625892,406.0126149,0,0
5474,4$,1,21,31,51,62,12,41,Abstract_Concrete_6tasks_simseq_2seq_listtask_switchAB_fMRI,407180,12435,34152,2,39,79,B4,tools,6,4$,5064.8499743,5479.8626584,415.0126841,0,0
3392,4$,1,21,31,52,62,12,41,Abstract_Concrete_6tasks_simseq_2seq_listtask_switchAB_fMRI,407180,12435,34152,2,40,80,A5,tools,6,4$,5064.8499743,5492.8629851,428.013010799999,0,0
3585,9(,1,21,32,51,61,11,41,Abstract_Concrete_6tasks_simseq_2seq_listtask_switchAB_fMRI,407180,12435,34152,3,1,81,A3,weapon,5,9(,5571.7396168,5579.7520467,8.01242990000083,0,0
3921,7&,1,21,32,52,62,11,42,Abstract_Concrete_6tasks_simseq_2seq_listtask_switchAB_fMRI,407180,12435,34152,3,2,82,B5,vest,2,7&,5571.7396168,5590.7528368,19.0132200000007,0,0
1486,7&,1,21,32,51,61,12,41,Abstract_Concrete_6tasks_simseq_2seq_listtask_switchAB_fMRI,407180,12435,34152,3,3,83,A2,vest,2,7&,5571.7396168,5601.750862,30.0112452000003,0,0
2213,8*,1,21,32,52,61,12,41,Abstract_Concrete_6tasks_simseq_2seq_listtask_switchAB_fMRI,407180,12435,34152,3,4,84,B1,glasses,3,8*,5571.7396168,5610.7508533,39.0112365000005,0,0
3826,9(,1,22,32,51,62,11,41,Abstract_Concrete_6tasks_simseq_2seq_listtask_switchAB_fMRI,407180,12435,34152,3,5,85,A3,weapon,5,9(,5571.7396168,5620.7493635,49.0097467000005,0,0
4939,4$,1,22,32,51,62,11,41,Abstract_Concrete_6tasks_simseq_2seq_listtask_switchAB_fMRI,407180,12435,34152,3,6,86,B4,tools,6,4$,5571.7396168,5631.7515401,60.0119233000005,0,0
2219,4$,1,22,32,51,62,11,41,Abstract_Concrete_6tasks_simseq_2seq_listtask_switchAB_fMRI,407180,12435,34152,3,7,87,A5,tools,6,4$,5571.7396168,5643.7512244,72.0116076000004,0,0
5430,7&,1,21,31,52,61,11,41,Abstract_Concrete_6tasks_simseq_2seq_listtask_switchAB_fMRI,407180,12435,34152,3,8,88,B5,vest,2,7&,5571.7396168,5653.7519071,82.0122903000001,0,0
3710,8*,1,22,32,52,62,12,41,Abstract_Concrete_6tasks_simseq_2seq_listtask_switchAB_fMRI,407180,12435,34152,3,9,89,A4,glasses,3,8*,5571.7396168,5666.7513679,95.0117511000008,0,0
1801,7&,1,21,32,52,62,12,41,Abstract_Concrete_6tasks_simseq_2seq_listtask_switchAB_fMRI,407180,12435,34152,3,10,90,B5,vest,2,7&,5571.7396168,5677.751555,106.0119382,0,0
1382,3#,1,22,31,52,62,11,41,Abstract_Concrete_6tasks_simseq_2seq_listtask_switchAB_fMRI,407180,12435,34152,3,11,91,A1,helmet,1,3#,5571.7396168,5686.7514587,115.0118419,0,0
4282,3#,1,22,31,51,61,11,42,Abstract_Concrete_6tasks_simseq_2seq_listtask_switchAB_fMRI,407180,12435,34152,3,12,92,B3,helmet,1,3#,5571.7396168,5695.7529029,124.0132861,0,0
1931,4$,0,22,32,52,62,12,41,Abstract_Concrete_6tasks_simseq_2seq_listtask_switchAB_fMRI,407180,12435,34152,3,13,93,A4,glasses,3,8*,5571.7396168,5707.7516374,136.0120206,5709.6964142,137.9567974
1826,9(,1,21,32,52,62,11,42,Abstract_Concrete_6tasks_simseq_2seq_listtask_switchAB_fMRI,407180,12435,34152,3,14,94,B2,weapon,5,9(,5571.7396168,5716.7503593,145.010742500001,0,0
2113,3#,1,22,32,52,61,11,42,Abstract_Concrete_6tasks_simseq_2seq_listtask_switchAB_fMRI,407180,12435,34152,3,15,95,A1,helmet,1,3#,5571.7396168,5725.7531113,154.0134945,0,0
2729,7&,1,22,32,52,62,11,42,Abstract_Concrete_6tasks_simseq_2seq_listtask_switchAB_fMRI,407180,12435,34152,3,16,96,B5,vest,2,7&,5571.7396168,5735.7521997,164.012582900001,0,0
4463,9(,1,22,32,51,61,11,42,Abstract_Concrete_6tasks_simseq_2seq_listtask_switchAB_fMRI,407180,12435,34152,3,17,97,A3,weapon,5,9(,5571.7396168,5745.752012,174.0123952,0,0
2002,8*,1,21,32,51,62,11,42,Abstract_Concrete_6tasks_simseq_2seq_listtask_switchAB_fMRI,407180,12435,34152,3,18,98,B1,glasses,3,8*,5571.7396168,5757.7507965,186.011179700001,0,0
2831,8*,1,21,31,51,62,12,42,Abstract_Concrete_6tasks_simseq_2seq_listtask_switchAB_fMRI,407180,12435,34152,3,19,99,A4,glasses,3,8*,5571.7396168,5767.7518119,196.0121951,0,0
3280,9(,1,22,32,52,61,11,41,Abstract_Concrete_6tasks_simseq_2seq_listtask_switchAB_fMRI,407180,12435,34152,3,20,100,B2,weapon,5,9(,5571.7396168,5777.7528066,206.013189800001,0,0
1687,7&,1,21,32,51,61,12,42,Abstract_Concrete_6tasks_simseq_2seq_listtask_switchAB_fMRI,407180,12435,34152,3,21,101,A2,vest,2,7&,5571.7396168,5788.7524579,217.012841100001,0,0
5016,4$,1,21,32,52,62,12,42,Abstract_Concrete_6tasks_simseq_2seq_listtask_switchAB_fMRI,407180,12435,34152,3,22,102,B4,tools,6,4$,5571.7396168,5797.750305,226.0106882,0,0
4627,4$,1,22,32,52,62,12,42,Abstract_Concrete_6tasks_simseq_2seq_listtask_switchAB_fMRI,407180,12435,34152,3,23,103,A5,tools,6,4$,5571.7396168,5810.7538989,239.014282100001,0,0
3382,3#,1,21,32,51,61,12,42,Abstract_Concrete_6tasks_simseq_2seq_listtask_switchAB_fMRI,407180,12435,34152,3,24,104,B3,helmet,1,3#,5571.7396168,5822.7522563,251.012639500001,0,0
2619,7&,1,21,31,52,61,12,41,Abstract_Concrete_6tasks_simseq_2seq_listtask_switchAB_fMRI,407180,12435,34152,3,25,105,A2,vest,2,7&,5571.7396168,5833.7511362,262.0115194,0,0
2606,4$,1,22,31,52,61,11,41,Abstract_Concrete_6tasks_simseq_2seq_listtask_switchAB_fMRI,407180,12435,34152,3,26,106,B4,tools,6,4$,5571.7396168,5843.7525888,272.012972,0,0
1223,3#,1,21,32,51,62,12,42,Abstract_Concrete_6tasks_simseq_2seq_listtask_switchAB_fMRI,407180,12435,34152,3,27,107,A1,helmet,1,3#,5571.7396168,5853.7504409,282.010824100001,0,0
2254,8*,1,22,32,52,62,12,41,Abstract_Concrete_6tasks_simseq_2seq_listtask_switchAB_fMRI,407180,12435,34152,3,28,108,B1,glasses,3,8*,5571.7396168,5862.7526871,291.0130703,0,0
1963,4$,1,21,31,51,61,12,42,Abstract_Concrete_6tasks_simseq_2seq_listtask_switchAB_fMRI,407180,12435,34152,3,29,109,A5,tools,6,4$,5571.7396168,5872.752605,301.0129882,0,0
3507,4$,1,22,32,51,61,11,41,Abstract_Concrete_6tasks_simseq_2seq_listtask_switchAB_fMRI,407180,12435,34152,3,30,110,B4,tools,6,4$,5571.7396168,5881.7511282,310.0115114,0,0
1529,7&,1,22,32,52,62,11,42,Abstract_Concrete_6tasks_simseq_2seq_listtask_switchAB_fMRI,407180,12435,34152,3,31,111,A2,vest,2,7&,5571.7396168,5892.7508556,321.011238800001,0,0
2894,3#,1,22,32,51,62,12,41,Abstract_Concrete_6tasks_simseq_2seq_listtask_switchAB_fMRI,407180,12435,34152,3,32,112,B3,helmet,1,3#,5571.7396168,5901.7499542,330.0103374,0,0
4610,8*,1,21,32,51,62,12,41,Abstract_Concrete_6tasks_simseq_2seq_listtask_switchAB_fMRI,407180,12435,34152,3,33,113,A4,glasses,3,8*,5571.7396168,5911.7489957,340.0093789,0,0
3196,3#,1,22,32,51,61,11,42,Abstract_Concrete_6tasks_simseq_2seq_listtask_switchAB_fMRI,407180,12435,34152,3,34,114,B3,helmet,1,3#,5571.7396168,5923.7502929,352.010676100001,0,0
2775,4$,1,22,32,52,61,12,41,Abstract_Concrete_6tasks_simseq_2seq_listtask_switchAB_fMRI,407180,12435,34152,3,35,115,A5,tools,6,4$,5571.7396168,5934.7504911,363.0108743,0,0
1583,8*,1,22,31,51,62,12,41,Abstract_Concrete_6tasks_simseq_2seq_listtask_switchAB_fMRI,407180,12435,34152,3,36,116,B1,glasses,3,8*,5571.7396168,5944.7507802,373.0111634,0,0
2808,9(,1,22,31,51,62,11,41,Abstract_Concrete_6tasks_simseq_2seq_listtask_switchAB_fMRI,407180,12435,34152,3,37,117,A3,weapon,5,9(,5571.7396168,5953.7521977,382.0125809,0,0
3676,8*,0,21,31,52,61,11,42,Abstract_Concrete_6tasks_simseq_2seq_listtask_switchAB_fMRI,407180,12435,34152,3,38,118,B2,weapon,5,9(,5571.7396168,5963.7486292,392.009012400001,5967.436808,395.697191200001
1411,3#,1,21,31,52,61,11,42,Abstract_Concrete_6tasks_simseq_2seq_listtask_switchAB_fMRI,407180,12435,34152,3,39,119,A1,helmet,1,3#,5571.7396168,5974.7497564,403.0101396,0,0
1318,9(,1,21,31,52,62,11,41,Abstract_Concrete_6tasks_simseq_2seq_listtask_switchAB_fMRI,407180,12435,34152,3,40,120,B2,weapon,5,9(,5571.7396168,5983.7504232,412.010806400001,0,0
2242,8*,1,21,32,52,61,11,42,Abstract_Concrete_6tasks_simseq_2seq_listtask_switchAB_fMRI,407180,12435,34152,4,1,121,B1,glasses,3,8*,6063.1884283,6071.2006053,8.01217699999961,0,0
1714,7&,1,22,32,51,62,12,41,Abstract_Concrete_6tasks_simseq_2seq_listtask_switchAB_fMRI,407180,12435,34152,4,2,122,A2,vest,2,7&,6063.1884283,6081.2000133,18.0115850000002,0,0
5202,4$,1,21,31,52,62,11,41,Abstract_Concrete_6tasks_simseq_2seq_listtask_switchAB_fMRI,407180,12435,34152,4,3,123,B4,tools,6,4$,6063.1884283,6090.2021338,27.0137055000005,0,0
3817,9(,1,21,32,52,62,12,41,Abstract_Concrete_6tasks_simseq_2seq_listtask_switchAB_fMRI,407180,12435,34152,4,4,124,A3,weapon,5,9(,6063.1884283,6103.2025114,40.0140830999999,0,0
1909,7&,1,22,31,51,61,11,42,Abstract_Concrete_6tasks_simseq_2seq_listtask_switchAB_fMRI,407180,12435,34152,4,5,125,B5,vest,2,7&,6063.1884283,6114.2020511,51.0136228000001,0,0
2518,4$,1,22,32,51,61,11,41,Abstract_Concrete_6tasks_simseq_2seq_listtask_switchAB_fMRI,407180,12435,34152,4,6,126,A5,tools,6,4$,6063.1884283,6123.1997761,60.0113478000003,0,0
1677,8*,1,21,31,52,61,12,41,Abstract_Concrete_6tasks_simseq_2seq_listtask_switchAB_fMRI,407180,12435,34152,4,7,127,B1,glasses,3,8*,6063.1884283,6133.2002981,70.0118697999997,0,0
2139,4$,1,21,32,52,62,11,42,Abstract_Concrete_6tasks_simseq_2seq_listtask_switchAB_fMRI,407180,12435,34152,4,8,128,A5,tools,6,4$,6063.1884283,6142.2003695,79.0119412000004,0,0
3337,3#,1,21,31,51,62,11,41,Abstract_Concrete_6tasks_simseq_2seq_listtask_switchAB_fMRI,407180,12435,34152,4,9,129,B3,helmet,1,3#,6063.1884283,6152.2011988,89.0127705000004,0,0
3476,9(,1,22,31,52,62,12,42,Abstract_Concrete_6tasks_simseq_2seq_listtask_switchAB_fMRI,407180,12435,34152,4,10,130,A3,weapon,5,9(,6063.1884283,6163.2003236,100.0118953,0,0
4708,4$,1,21,32,52,62,11,41,Abstract_Concrete_6tasks_simseq_2seq_listtask_switchAB_fMRI,407180,12435,34152,4,11,131,B4,tools,6,4$,6063.1884283,6174.200326,111.0118977,0,0
1034,3#,1,22,32,52,62,12,41,Abstract_Concrete_6tasks_simseq_2seq_listtask_switchAB_fMRI,407180,12435,34152,4,12,132,A1,helmet,1,3#,6063.1884283,6186.201519,123.0130907,0,0
2067,7&,1,22,31,51,62,12,41,Abstract_Concrete_6tasks_simseq_2seq_listtask_switchAB_fMRI,407180,12435,34152,4,13,133,B5,vest,2,7&,6063.1884283,6195.2011004,132.0126721,0,0
1469,3#,1,21,31,51,62,12,42,Abstract_Concrete_6tasks_simseq_2seq_listtask_switchAB_fMRI,407180,12435,34152,4,14,134,A1,helmet,1,3#,6063.1884283,6205.2021646,142.0137363,0,0
2284,3#,1,21,32,52,61,11,42,Abstract_Concrete_6tasks_simseq_2seq_listtask_switchAB_fMRI,407180,12435,34152,4,15,135,B3,helmet,1,3#,6063.1884283,6214.200161,151.0117327,0,0
2562,4$,1,21,32,52,62,11,41,Abstract_Concrete_6tasks_simseq_2seq_listtask_switchAB_fMRI,407180,12435,34152,4,16,136,A5,tools,6,4$,6063.1884283,6224.2006821,161.012253800001,0,0
1923,4$,1,22,31,51,62,11,42,Abstract_Concrete_6tasks_simseq_2seq_listtask_switchAB_fMRI,407180,12435,34152,4,17,137,B4,tools,6,4$,6063.1884283,6234.2000443,171.011616,0,0
4031,9(,1,21,31,52,61,11,42,Abstract_Concrete_6tasks_simseq_2seq_listtask_switchAB_fMRI,407180,12435,34152,4,18,138,A3,weapon,5,9(,6063.1884283,6243.2012228,180.0127945,0,0
2842,3#,1,21,32,51,62,11,42,Abstract_Concrete_6tasks_simseq_2seq_listtask_switchAB_fMRI,407180,12435,34152,4,19,139,B3,helmet,1,3#,6063.1884283,6255.1990565,192.0106282,0,0
1158,3#,1,22,32,51,62,12,41,Abstract_Concrete_6tasks_simseq_2seq_listtask_switchAB_fMRI,407180,12435,34152,4,20,140,A1,helmet,1,3#,6063.1884283,6265.1995279,202.0110996,0,0
1844,7&,1,21,32,52,61,12,42,Abstract_Concrete_6tasks_simseq_2seq_listtask_switchAB_fMRI,407180,12435,34152,4,21,141,B5,vest,2,7&,6063.1884283,6274.2005979,211.0121696,0,0
1624,7&,1,22,32,51,61,11,41,Abstract_Concrete_6tasks_simseq_2seq_listtask_switchAB_fMRI,407180,12435,34152,4,22,142,A2,vest,2,7&,6063.1884283,6283.1997812,220.0113529,0,0
1879,9(,1,22,32,52,61,11,42,Abstract_Concrete_6tasks_simseq_2seq_listtask_switchAB_fMRI,407180,12435,34152,4,23,143,B2,weapon,5,9(,6063.1884283,6292.1989953,229.010567,0,0
809,3#,1,21,31,51,62,12,42,Abstract_Concrete_6tasks_simseq_2seq_listtask_switchAB_fMRI,407180,12435,34152,4,24,144,A1,helmet,1,3#,6063.1884283,6301.1996342,238.0112059,0,0
1424,7&,1,21,31,51,62,12,42,Abstract_Concrete_6tasks_simseq_2seq_listtask_switchAB_fMRI,407180,12435,34152,4,25,145,B5,vest,2,7&,6063.1884283,6309.2001325,246.0117042,0,0
1494,4$,1,21,32,51,61,12,42,Abstract_Concrete_6tasks_simseq_2seq_listtask_switchAB_fMRI,407180,12435,34152,4,26,146,A5,tools,6,4$,6063.1884283,6318.199505,255.0110767,0,0
1800,4$,1,22,31,51,62,12,41,Abstract_Concrete_6tasks_simseq_2seq_listtask_switchAB_fMRI,407180,12435,34152,4,27,147,B4,tools,6,4$,6063.1884283,6327.200564,264.0121357,0,0
1169,4$,0,22,31,51,61,12,42,Abstract_Concrete_6tasks_simseq_2seq_listtask_switchAB_fMRI,407180,12435,34152,4,28,148,A4,glasses,3,8*,6063.1884283,6336.1979214,273.0094931,6337.3818991,274.1934708
1945,9(,1,22,32,52,62,11,41,Abstract_Concrete_6tasks_simseq_2seq_listtask_switchAB_fMRI,407180,12435,34152,4,29,149,B2,weapon,5,9(,6063.1884283,6345.1985434,282.0101151,0,0
2206,7&,1,22,31,52,61,11,41,Abstract_Concrete_6tasks_simseq_2seq_listtask_switchAB_fMRI,407180,12435,34152,4,30,150,A2,vest,2,7&,6063.1884283,6354.2006297,291.0122014,0,0
1382,8*,1,22,32,51,62,11,41,Abstract_Concrete_6tasks_simseq_2seq_listtask_switchAB_fMRI,407180,12435,34152,4,31,151,B1,glasses,3,8*,6063.1884283,6364.2003228,301.0118945,0,0
6818,8*,1,22,31,51,62,11,41,Abstract_Concrete_6tasks_simseq_2seq_listtask_switchAB_fMRI,407180,12435,34152,4,32,152,A4,glasses,3,8*,6063.1884283,6373.2014851,310.0130568,0,0
2368,8*,1,22,31,52,62,11,42,Abstract_Concrete_6tasks_simseq_2seq_listtask_switchAB_fMRI,407180,12435,34152,4,33,153,B1,glasses,3,8*,6063.1884283,6387.199379,324.0109507,0,0
3690,8*,1,21,31,52,61,11,42,Abstract_Concrete_6tasks_simseq_2seq_listtask_switchAB_fMRI,407180,12435,34152,4,34,154,A4,glasses,3,8*,6063.1884283,6397.2001009,334.0116726,0,0
2358,9(,1,22,31,51,62,11,41,Abstract_Concrete_6tasks_simseq_2seq_listtask_switchAB_fMRI,407180,12435,34152,4,35,155,B2,weapon,5,9(,6063.1884283,6408.2009673,345.012539,0,0
6363,8*,0,22,31,51,61,12,41,Abstract_Concrete_6tasks_simseq_2seq_listtask_switchAB_fMRI,407180,12435,34152,4,36,156,A3,weapon,5,9(,6063.1884283,6418.1999128,355.0114845,6424.579248,361.3908197
4998,9(,1,22,32,51,62,11,42,Abstract_Concrete_6tasks_simseq_2seq_listtask_switchAB_fMRI,407180,12435,34152,4,37,157,B2,weapon,5,9(,6063.1884283,6432.1993974,369.0109691,0,0
2312,7&,1,22,31,51,62,11,42,Abstract_Concrete_6tasks_simseq_2seq_listtask_switchAB_fMRI,407180,12435,34152,4,38,158,A2,vest,2,7&,6063.1884283,6445.2031856,382.0147573,0,0
4731,9(,0,22,31,51,62,11,42,Abstract_Concrete_6tasks_simseq_2seq_listtask_switchAB_fMRI,407180,12435,34152,4,39,159,B3,helmet,1,3#,6063.1884283,6455.199779,392.0113507,6459.9432364,396.7548081
3570,8*,1,22,31,52,61,12,42,Abstract_Concrete_6tasks_simseq_2seq_listtask_switchAB_fMRI,407180,12435,34152,4,40,160,A4,glasses,3,8*,6063.1884283,6467.1988232,404.0103949,0,0
2504,7&,1,22,31,51,62,11,41,Abstract_Concrete_6tasks_simseq_2seq_listtask_switchAB_fMRI,407180,12435,34152,5,1,161,A2,vest,2,7&,6536.0936184,6544.10315289841,8.00953449841199,0,0
2955,7&,1,22,31,52,62,12,42,Abstract_Concrete_6tasks_simseq_2seq_listtask_switchAB_fMRI,407180,12435,34152,5,2,162,B5,vest,2,7&,6536.0936184,6554.10290362143,18.0092852214275,0,0
3036,9(,1,22,32,51,62,11,41,Abstract_Concrete_6tasks_simseq_2seq_listtask_switchAB_fMRI,407180,12435,34152,5,3,163,A3,weapon,5,9(,6536.0936184,6564.1051085,28.0114900999997,0,0
2458,3#,1,22,31,52,61,11,41,Abstract_Concrete_6tasks_simseq_2seq_listtask_switchAB_fMRI,407180,12435,34152,5,4,164,B3,helmet,1,3#,6536.0936184,6575.1049523,39.0113339,0,0
2773,7&,1,21,32,52,61,11,41,Abstract_Concrete_6tasks_simseq_2seq_listtask_switchAB_fMRI,407180,12435,34152,5,5,165,A2,vest,2,7&,6536.0936184,6585.1078542,49.0142357999994,0,0
2557,3#,1,21,32,52,62,12,41,Abstract_Concrete_6tasks_simseq_2seq_listtask_switchAB_fMRI,407180,12435,34152,5,6,166,B3,helmet,1,3#,6536.0936184,6595.1054992,59.0118807999997,0,0
2675,4$,1,21,32,51,61,11,41,Abstract_Concrete_6tasks_simseq_2seq_listtask_switchAB_fMRI,407180,12435,34152,5,7,167,A5,tools,6,4$,6536.0936184,6605.1057641,69.0121456999996,0,0
5854,4$,1,22,31,52,62,12,42,Abstract_Concrete_6tasks_simseq_2seq_listtask_switchAB_fMRI,407180,12435,34152,5,8,168,B4,tools,6,4$,6536.0936184,6615.1056717,79.0120532999999,0,0
1142,3#,1,21,32,51,61,12,42,Abstract_Concrete_6tasks_simseq_2seq_listtask_switchAB_fMRI,407180,12435,34152,5,9,169,A1,helmet,1,3#,6536.0936184,6628.1046143,92.0109959000001,0,0
1877,9(,1,22,32,52,61,11,42,Abstract_Concrete_6tasks_simseq_2seq_listtask_switchAB_fMRI,407180,12435,34152,5,10,170,B2,weapon,5,9(,6536.0936184,6637.1061635,101.012545099999,0,0
5044,8*,1,21,31,52,62,12,41,Abstract_Concrete_6tasks_simseq_2seq_listtask_switchAB_fMRI,407180,12435,34152,5,11,171,A4,glasses,3,8*,6536.0936184,6646.105282,110.0116636,0,0
2999,7&,1,22,32,51,61,12,42,Abstract_Concrete_6tasks_simseq_2seq_listtask_switchAB_fMRI,407180,12435,34152,5,12,172,B5,vest,2,7&,6536.0936184,6659.1059833,123.0123649,0,0
2441,9(,1,21,31,52,61,11,41,Abstract_Concrete_6tasks_simseq_2seq_listtask_switchAB_fMRI,407180,12435,34152,5,13,173,A3,weapon,5,9(,6536.0936184,6670.1056108,134.0119924,0,0
1328,9(,1,22,32,52,62,11,41,Abstract_Concrete_6tasks_simseq_2seq_listtask_switchAB_fMRI,407180,12435,34152,5,14,174,B2,weapon,5,9(,6536.0936184,6680.1059562,144.0123378,0,0
1568,4$,1,22,31,51,62,11,41,Abstract_Concrete_6tasks_simseq_2seq_listtask_switchAB_fMRI,407180,12435,34152,5,15,175,A5,tools,6,4$,6536.0936184,6689.1063274,153.012709,0,0
2433,8*,1,21,32,52,62,12,41,Abstract_Concrete_6tasks_simseq_2seq_listtask_switchAB_fMRI,407180,12435,34152,5,16,176,B1,glasses,3,8*,6536.0936184,6698.1031753,162.0095569,0,0
2066,4$,1,21,32,51,62,12,41,Abstract_Concrete_6tasks_simseq_2seq_listtask_switchAB_fMRI,407180,12435,34152,5,17,177,A5,tools,6,4$,6536.0936184,6708.105377,172.0117586,0,0
2108,9(,1,21,32,51,62,11,42,Abstract_Concrete_6tasks_simseq_2seq_listtask_switchAB_fMRI,407180,12435,34152,5,18,178,B2,weapon,5,9(,6536.0936184,6718.107534,182.0139156,0,0
4418,8*,1,21,32,51,61,11,42,Abstract_Concrete_6tasks_simseq_2seq_listtask_switchAB_fMRI,407180,12435,34152,5,19,179,A4,glasses,3,8*,6536.0936184,6728.1059831,192.0123647,0,0
4083,3#,1,21,32,52,62,12,41,Abstract_Concrete_6tasks_simseq_2seq_listtask_switchAB_fMRI,407180,12435,34152,5,20,180,B3,helmet,1,3#,6536.0936184,6740.1068081,204.0131897,0,0
4538,8*,0,21,31,51,61,11,42,Abstract_Concrete_6tasks_simseq_2seq_listtask_switchAB_fMRI,407180,12435,34152,5,21,181,A3,weapon,5,9(,6536.0936184,6752.1077529,216.0141345,6756.6615754,220.567957
4333,4$,1,22,31,52,61,11,42,Abstract_Concrete_6tasks_simseq_2seq_listtask_switchAB_fMRI,407180,12435,34152,5,22,182,B4,tools,6,4$,6536.0936184,6764.1047804,228.011162,0,0
1647,3#,1,21,31,52,62,11,41,Abstract_Concrete_6tasks_simseq_2seq_listtask_switchAB_fMRI,407180,12435,34152,5,23,183,A1,helmet,1,3#,6536.0936184,6776.1042915,240.0106731,0,0
1846,8*,1,21,31,51,61,12,41,Abstract_Concrete_6tasks_simseq_2seq_listtask_switchAB_fMRI,407180,12435,34152,5,24,184,B1,glasses,3,8*,6536.0936184,6785.1070603,249.0134419,0,0
3086,7&,1,21,32,52,61,12,42,Abstract_Concrete_6tasks_simseq_2seq_listtask_switchAB_fMRI,407180,12435,34152,5,25,185,A2,vest,2,7&,6536.0936184,6794.1051464,258.011528,0,0
3149,3#,1,22,32,52,62,11,42,Abstract_Concrete_6tasks_simseq_2seq_listtask_switchAB_fMRI,407180,12435,34152,5,26,186,B3,helmet,1,3#,6536.0936184,6805.1053568,269.0117384,0,0
3511,9(,1,21,31,51,61,11,41,Abstract_Concrete_6tasks_simseq_2seq_listtask_switchAB_fMRI,407180,12435,34152,5,27,187,A3,weapon,5,9(,6536.0936184,6816.1050451,280.0114267,0,0
4800,9(,1,21,32,51,61,12,41,Abstract_Concrete_6tasks_simseq_2seq_listtask_switchAB_fMRI,407180,12435,34152,5,28,188,B2,weapon,5,9(,6536.0936184,6827.1055238,291.0119054,0,0
1747,7&,1,21,32,51,61,11,41,Abstract_Concrete_6tasks_simseq_2seq_listtask_switchAB_fMRI,407180,12435,34152,5,29,189,A2,vest,2,7&,6536.0936184,6839.1047452,303.0111268,0,0
2760,4$,1,22,32,51,61,11,42,Abstract_Concrete_6tasks_simseq_2seq_listtask_switchAB_fMRI,407180,12435,34152,5,30,190,B4,tools,6,4$,6536.0936184,6848.1041625,312.0105441,0,0
5166,8*,1,21,31,51,62,12,42,Abstract_Concrete_6tasks_simseq_2seq_listtask_switchAB_fMRI,407180,12435,34152,5,31,191,A4,glasses,3,8*,6536.0936184,6858.1061289,322.0125105,0,0
2424,7&,1,22,31,51,61,12,41,Abstract_Concrete_6tasks_simseq_2seq_listtask_switchAB_fMRI,407180,12435,34152,5,32,192,B5,vest,2,7&,6536.0936184,6871.105246,335.0116276,0,0
1683,4$,1,22,31,51,61,11,41,Abstract_Concrete_6tasks_simseq_2seq_listtask_switchAB_fMRI,407180,12435,34152,5,33,193,A5,tools,6,4$,6536.0936184,6881.1043689,345.0107505,0,0
3708,8*,1,21,32,51,62,12,41,Abstract_Concrete_6tasks_simseq_2seq_listtask_switchAB_fMRI,407180,12435,34152,5,34,194,B1,glasses,3,8*,6536.0936184,6890.1048224,354.011203999999,0,0
1114,3#,1,22,31,52,62,12,41,Abstract_Concrete_6tasks_simseq_2seq_listtask_switchAB_fMRI,407180,12435,34152,5,35,195,A1,helmet,1,3#,6536.0936184,6901.1052166,365.0115982,0,0
3156,4$,1,22,31,52,61,12,42,Abstract_Concrete_6tasks_simseq_2seq_listtask_switchAB_fMRI,407180,12435,34152,5,36,196,B4,tools,6,4$,6536.0936184,6910.1066862,374.0130678,0,0
4453,8*,1,21,31,51,62,12,41,Abstract_Concrete_6tasks_simseq_2seq_listtask_switchAB_fMRI,407180,12435,34152,5,37,197,A4,glasses,3,8*,6536.0936184,6921.1066234,385.013005,0,0
2211,7&,1,22,31,52,61,11,42,Abstract_Concrete_6tasks_simseq_2seq_listtask_switchAB_fMRI,407180,12435,34152,5,38,198,B5,vest,2,7&,6536.0936184,6933.1055824,397.011963999999,0,0
1142,3#,1,22,31,52,62,11,41,Abstract_Concrete_6tasks_simseq_2seq_listtask_switchAB_fMRI,407180,12435,34152,5,39,199,A1,helmet,1,3#,6536.0936184,6943.1055515,407.0119331,0,0
981,8*,1,21,31,51,62,11,41,Abstract_Concrete_6tasks_simseq_2seq_listtask_switchAB_fMRI,407180,12435,34152,5,40,200,B1,glasses,3,8*,6536.0936184,6952.1068999,416.0132815,0,0
2856,3#,1,21,32,51,61,12,42,Abstract_Concrete_6tasks_simseq_2seq_listtask_switchAB_fMRI,407180,12435,34152,6,1,201,B3,helmet,1,3#,7002.897182,7010.90413009609,8.00694809608831,0,0
1672,7&,1,22,31,51,61,12,42,Abstract_Concrete_6tasks_simseq_2seq_listtask_switchAB_fMRI,407180,12435,34152,6,2,202,A2,vest,2,7&,7002.897182,7020.90388308087,18.006701080868,0,0
2008,9(,1,22,32,52,61,12,41,Abstract_Concrete_6tasks_simseq_2seq_listtask_switchAB_fMRI,407180,12435,34152,6,3,203,B2,weapon,5,9(,7002.897182,7029.9091669,27.0119849000002,0,0
1007,3#,1,21,32,51,61,11,41,Abstract_Concrete_6tasks_simseq_2seq_listtask_switchAB_fMRI,407180,12435,34152,6,4,204,A1,helmet,1,3#,7002.897182,7039.9093936,37.0122116000002,0,0
3092,4$,1,22,31,52,62,12,41,Abstract_Concrete_6tasks_simseq_2seq_listtask_switchAB_fMRI,407180,12435,34152,6,5,205,B4,tools,6,4$,7002.897182,7048.909719,46.0125370000005,0,0
4471,8*,1,22,31,52,62,11,42,Abstract_Concrete_6tasks_simseq_2seq_listtask_switchAB_fMRI,407180,12435,34152,6,6,206,A4,glasses,3,8*,7002.897182,7059.9090722,57.0118902000004,0,0
7351,4$,1,22,31,52,62,12,41,Abstract_Concrete_6tasks_simseq_2seq_listtask_switchAB_fMRI,407180,12435,34152,6,7,207,B4,tools,6,4$,7002.897182,7071.9087229,69.0115409,0,0
3118,8*,1,21,31,52,62,11,41,Abstract_Concrete_6tasks_simseq_2seq_listtask_switchAB_fMRI,407180,12435,34152,6,8,208,A4,glasses,3,8*,7002.897182,7086.9096282,84.0124462000003,0,0
2110,7&,1,21,31,51,62,11,41,Abstract_Concrete_6tasks_simseq_2seq_listtask_switchAB_fMRI,407180,12435,34152,6,9,209,B5,vest,2,7&,7002.897182,7097.9104208,95.0132388000002,0,0
1320,7&,1,22,31,51,61,12,42,Abstract_Concrete_6tasks_simseq_2seq_listtask_switchAB_fMRI,407180,12435,34152,6,10,210,A2,vest,2,7&,7002.897182,7107.9085447,105.0113627,0,0
1961,3#,1,22,32,52,62,11,42,Abstract_Concrete_6tasks_simseq_2seq_listtask_switchAB_fMRI,407180,12435,34152,6,11,211,B3,helmet,1,3#,7002.897182,7116.910045,114.012863,0,0
1206,3#,1,21,32,52,61,11,42,Abstract_Concrete_6tasks_simseq_2seq_listtask_switchAB_fMRI,407180,12435,34152,6,12,212,A1,helmet,1,3#,7002.897182,7125.9083743,123.0111923,0,0
2576,4$,1,21,32,52,61,12,42,Abstract_Concrete_6tasks_simseq_2seq_listtask_switchAB_fMRI,407180,12435,34152,6,13,213,B4,tools,6,4$,7002.897182,7134.9090818,132.011899800001,0,0
2705,9(,1,22,31,51,61,12,41,Abstract_Concrete_6tasks_simseq_2seq_listtask_switchAB_fMRI,407180,12435,34152,6,14,214,A3,weapon,5,9(,7002.897182,7144.9087349,142.0115529,0,0
2622,9(,1,22,31,51,62,11,42,Abstract_Concrete_6tasks_simseq_2seq_listtask_switchAB_fMRI,407180,12435,34152,6,15,215,B2,weapon,5,9(,7002.897182,7154.9095545,152.0123725,0,0
2447,4$,1,21,31,51,61,12,42,Abstract_Concrete_6tasks_simseq_2seq_listtask_switchAB_fMRI,407180,12435,34152,6,16,216,A5,tools,6,4$,7002.897182,7164.9111196,162.013937600001,0,0
1815,8*,1,21,31,52,61,11,42,Abstract_Concrete_6tasks_simseq_2seq_listtask_switchAB_fMRI,407180,12435,34152,6,17,217,B1,glasses,3,8*,7002.897182,7174.911077,172.013895,0,0
2001,4$,1,22,32,51,61,12,42,Abstract_Concrete_6tasks_simseq_2seq_listtask_switchAB_fMRI,407180,12435,34152,6,18,218,A5,tools,6,4$,7002.897182,7183.9109766,181.0137946,0,0
1372,9(,1,22,32,52,61,11,42,Abstract_Concrete_6tasks_simseq_2seq_listtask_switchAB_fMRI,407180,12435,34152,6,19,219,B2,weapon,5,9(,7002.897182,7193.909406,191.012224,0,0
911,3#,1,22,32,52,62,11,41,Abstract_Concrete_6tasks_simseq_2seq_listtask_switchAB_fMRI,407180,12435,34152,6,20,220,A1,helmet,1,3#,7002.897182,7202.9085994,200.0114174,0,0
4183,4$,1,21,32,51,61,11,41,Abstract_Concrete_6tasks_simseq_2seq_listtask_switchAB_fMRI,407180,12435,34152,6,21,221,B4,tools,6,4$,7002.897182,7210.9084717,208.0112897,0,0
1431,3#,1,22,32,51,61,11,42,Abstract_Concrete_6tasks_simseq_2seq_listtask_switchAB_fMRI,407180,12435,34152,6,22,222,A1,helmet,1,3#,7002.897182,7222.9081473,220.0109653,0,0
1938,9(,1,22,31,52,61,11,42,Abstract_Concrete_6tasks_simseq_2seq_listtask_switchAB_fMRI,407180,12435,34152,6,23,223,B2,weapon,5,9(,7002.897182,7231.9066499,229.0094679,0,0
1407,4$,1,21,32,52,62,12,42,Abstract_Concrete_6tasks_simseq_2seq_listtask_switchAB_fMRI,407180,12435,34152,6,24,224,A5,tools,6,4$,7002.897182,7240.9071827,238.0100007,0,0
1614,3#,1,21,32,52,62,11,41,Abstract_Concrete_6tasks_simseq_2seq_listtask_switchAB_fMRI,407180,12435,34152,6,25,225,B3,helmet,1,3#,7002.897182,7249.9077439,247.010561900001,0,0
4074,9(,1,22,31,52,62,12,42,Abstract_Concrete_6tasks_simseq_2seq_listtask_switchAB_fMRI,407180,12435,34152,6,26,226,A3,weapon,5,9(,7002.897182,7258.9087684,256.0115864,0,0
2257,7&,1,22,32,52,62,12,41,Abstract_Concrete_6tasks_simseq_2seq_listtask_switchAB_fMRI,407180,12435,34152,6,27,227,B5,vest,2,7&,7002.897182,7270.9079219,268.0107399,0,0
1852,7&,1,21,31,52,62,12,42,Abstract_Concrete_6tasks_simseq_2seq_listtask_switchAB_fMRI,407180,12435,34152,6,28,228,A2,vest,2,7&,7002.897182,7280.9088027,278.0116207,0,0
1660,8*,1,21,31,52,61,12,41,Abstract_Concrete_6tasks_simseq_2seq_listtask_switchAB_fMRI,407180,12435,34152,6,29,229,B1,glasses,3,8*,7002.897182,7289.9075436,287.010361600001,0,0
2247,4$,1,21,31,51,62,11,42,Abstract_Concrete_6tasks_simseq_2seq_listtask_switchAB_fMRI,407180,12435,34152,6,30,230,A5,tools,6,4$,7002.897182,7298.908319,296.011137,0,0
1842,7&,1,21,32,51,62,12,42,Abstract_Concrete_6tasks_simseq_2seq_listtask_switchAB_fMRI,407180,12435,34152,6,31,231,B5,vest,2,7&,7002.897182,7308.9104347,306.013252700001,0,0
4587,8*,1,21,32,52,61,11,41,Abstract_Concrete_6tasks_simseq_2seq_listtask_switchAB_fMRI,407180,12435,34152,6,32,232,A4,glasses,3,8*,7002.897182,7317.9083575,315.011175500001,0,0
3959,3#,1,21,32,51,62,12,41,Abstract_Concrete_6tasks_simseq_2seq_listtask_switchAB_fMRI,407180,12435,34152,6,33,233,B3,helmet,1,3#,7002.897182,7329.9078434,327.010661400001,0,0
1642,2@,0,22,32,51,62,12,42,Abstract_Concrete_6tasks_simseq_2seq_listtask_switchAB_fMRI,407180,12435,34152,6,34,234,A2,vest,2,7&,7002.897182,7340.9095173,338.0123353,7342.567319,339.670137
3653,8*,1,21,32,52,62,12,41,Abstract_Concrete_6tasks_simseq_2seq_listtask_switchAB_fMRI,407180,12435,34152,6,35,235,B1,glasses,3,8*,7002.897182,7349.9079496,347.010767600001,0,0
4273,8*,1,22,31,52,61,11,41,Abstract_Concrete_6tasks_simseq_2seq_listtask_switchAB_fMRI,407180,12435,34152,6,36,236,A4,glasses,3,8*,7002.897182,7360.9097146,358.012532600001,0,0
904,8*,1,21,31,52,61,11,41,Abstract_Concrete_6tasks_simseq_2seq_listtask_switchAB_fMRI,407180,12435,34152,6,37,237,B1,glasses,3,8*,7002.897182,7372.9090743,370.0118923,0,0
4813,9(,1,22,32,51,62,11,41,Abstract_Concrete_6tasks_simseq_2seq_listtask_switchAB_fMRI,407180,12435,34152,6,38,238,A3,weapon,5,9(,7002.897182,7380.9085815,378.0113995,0,0
2720,7&,1,21,31,51,61,11,41,Abstract_Concrete_6tasks_simseq_2seq_listtask_switchAB_fMRI,407180,12435,34152,6,39,239,B5,vest,2,7&,7002.897182,7392.9074932,390.010311200001,0,0
4672,9(,1,22,31,52,62,12,41,Abstract_Concrete_6tasks_simseq_2seq_listtask_switchAB_fMRI,407180,12435,34152,6,40,240,A3,weapon,5,9(,7002.897182,7402.9082458,400.011063800001,0,0
