rt1,resp1,correct1,features_1,features_2,features_3,features_4,features_5,features_6,ExpName,subNo,seqA,seqB,block,trial,trialnum,cuetype,task,subtaskcode,corr_resp1,onsetTime_s,onsetTime_cue,onset_cue,onsetTime_cue_fb,onset_cue_fb
4248,2@,0,52,12,62,22,32,41,Abstract_Concrete_6tasks_simseq_2seq_listtask_switchAB_fMRI,456199,23154,51243,1,1,1,A1,vest,2,4$,3588.8419943,3596.8515598,8.00956550000001,3601.1228003,12.2808060000002
0,,0,51,11,61,21,31,42,Abstract_Concrete_6tasks_simseq_2seq_listtask_switchAB_fMRI,456199,23154,51243,1,2,2,B4,weapon,5,7&,3588.8419943,3608.8520831,20.0100888000002,3617.9084386,29.0664443000001
3378,4$,1,52,12,61,21,32,42,Abstract_Concrete_6tasks_simseq_2seq_listtask_switchAB_fMRI,456199,23154,51243,1,3,3,A1,vest,2,4$,3588.8419943,3625.8523058,37.0103115000002,0,0
3148,3#,1,51,12,62,21,31,41,Abstract_Concrete_6tasks_simseq_2seq_listtask_switchAB_fMRI,456199,23154,51243,1,4,4,B5,glasses,3,3#,3588.8419943,3636.8553311,48.0133368000002,0,0
6180,9(,1,52,11,62,22,31,42,Abstract_Concrete_6tasks_simseq_2seq_listtask_switchAB_fMRI,456199,23154,51243,1,5,5,A4,tools,6,9(,3588.8419943,3647.8536295,59.0116352,0,0
2682,9(,1,51,12,62,22,31,41,Abstract_Concrete_6tasks_simseq_2seq_listtask_switchAB_fMRI,456199,23154,51243,1,6,6,B1,tools,6,9(,3588.8419943,3661.8538466,73.0118523000001,0,0
3123,8*,1,51,12,62,22,31,42,Abstract_Concrete_6tasks_simseq_2seq_listtask_switchAB_fMRI,456199,23154,51243,1,7,7,A3,helmet,1,8*,3588.8419943,3671.8546651,83.0126708000003,0,0
4687,7&,1,52,12,61,21,31,42,Abstract_Concrete_6tasks_simseq_2seq_listtask_switchAB_fMRI,456199,23154,51243,1,8,8,B4,weapon,5,7&,3588.8419943,3682.8534672,94.0114729000002,0,0
2120,8*,1,51,12,62,22,32,41,Abstract_Concrete_6tasks_simseq_2seq_listtask_switchAB_fMRI,456199,23154,51243,1,9,9,A3,helmet,1,8*,3588.8419943,3694.8517775,106.0097832,0,0
2097,8*,1,52,11,62,21,32,42,Abstract_Concrete_6tasks_simseq_2seq_listtask_switchAB_fMRI,456199,23154,51243,1,10,10,B2,helmet,1,8*,3588.8419943,3704.8529967,116.0110024,0,0
2266,7&,1,51,12,62,21,32,42,Abstract_Concrete_6tasks_simseq_2seq_listtask_switchAB_fMRI,456199,23154,51243,1,11,11,A5,weapon,5,7&,3588.8419943,3714.8542343,126.01224,0,0
4109,4$,1,51,11,61,22,31,42,Abstract_Concrete_6tasks_simseq_2seq_listtask_switchAB_fMRI,456199,23154,51243,1,12,12,B3,vest,2,4$,3588.8419943,3724.854735,136.0127407,0,0
2324,4$,1,52,12,61,21,31,41,Abstract_Concrete_6tasks_simseq_2seq_listtask_switchAB_fMRI,456199,23154,51243,1,13,13,A1,vest,2,4$,3588.8419943,3736.856202,148.0142077,0,0
3962,4$,1,51,12,61,22,32,42,Abstract_Concrete_6tasks_simseq_2seq_listtask_switchAB_fMRI,456199,23154,51243,1,14,14,B3,vest,2,4$,3588.8419943,3746.8535693,158.011575,0,0
3106,3#,1,52,12,62,21,31,41,Abstract_Concrete_6tasks_simseq_2seq_listtask_switchAB_fMRI,456199,23154,51243,1,15,15,A2,glasses,3,3#,3588.8419943,3757.8549645,169.0129702,0,0
2274,9(,1,51,11,62,22,32,41,Abstract_Concrete_6tasks_simseq_2seq_listtask_switchAB_fMRI,456199,23154,51243,1,16,16,B1,tools,6,9(,3588.8419943,3768.8552385,180.0132442,0,0
1704,3#,1,52,12,62,22,32,41,Abstract_Concrete_6tasks_simseq_2seq_listtask_switchAB_fMRI,456199,23154,51243,1,17,17,A2,glasses,3,3#,3588.8419943,3778.8534923,190.011498,0,0
8601,7&,1,52,11,62,21,31,41,Abstract_Concrete_6tasks_simseq_2seq_listtask_switchAB_fMRI,456199,23154,51243,1,18,18,B4,weapon,5,7&,3588.8419943,3787.8544701,199.0124758,0,0
1913,8*,1,51,12,62,21,31,41,Abstract_Concrete_6tasks_simseq_2seq_listtask_switchAB_fMRI,456199,23154,51243,1,19,19,A3,helmet,1,8*,3588.8419943,3803.8551147,215.0131204,0,0
2784,8*,1,52,11,61,21,32,41,Abstract_Concrete_6tasks_simseq_2seq_listtask_switchAB_fMRI,456199,23154,51243,1,20,20,B2,helmet,1,8*,3588.8419943,3812.8549291,224.0129348,0,0
8005,7&,1,51,12,61,21,32,42,Abstract_Concrete_6tasks_simseq_2seq_listtask_switchAB_fMRI,456199,23154,51243,1,21,21,A5,weapon,5,7&,3588.8419943,3822.8524314,234.0104371,0,0
3510,3#,1,52,11,62,22,31,41,Abstract_Concrete_6tasks_simseq_2seq_listtask_switchAB_fMRI,456199,23154,51243,1,22,22,B5,glasses,3,3#,3588.8419943,3838.8538697,250.0118754,0,0
3669,9(,1,51,12,62,22,31,41,Abstract_Concrete_6tasks_simseq_2seq_listtask_switchAB_fMRI,456199,23154,51243,1,23,23,A4,tools,6,9(,3588.8419943,3849.8533579,261.0113636,0,0
2792,3#,1,51,12,61,21,32,42,Abstract_Concrete_6tasks_simseq_2seq_listtask_switchAB_fMRI,456199,23154,51243,1,24,24,B5,glasses,3,3#,3588.8419943,3860.8517288,272.0097345,0,0
3991,9(,1,51,11,61,22,31,42,Abstract_Concrete_6tasks_simseq_2seq_listtask_switchAB_fMRI,456199,23154,51243,1,25,25,A4,tools,6,9(,3588.8419943,3870.8547428,282.0127485,0,0
5349,9(,1,51,11,61,22,31,41,Abstract_Concrete_6tasks_simseq_2seq_listtask_switchAB_fMRI,456199,23154,51243,1,26,26,B1,tools,6,9(,3588.8419943,3882.8536973,294.011703,0,0
2140,3#,1,51,12,62,22,31,42,Abstract_Concrete_6tasks_simseq_2seq_listtask_switchAB_fMRI,456199,23154,51243,1,27,27,A2,glasses,3,3#,3588.8419943,3895.853517,307.0115227,0,0
2440,9(,1,52,12,62,21,32,41,Abstract_Concrete_6tasks_simseq_2seq_listtask_switchAB_fMRI,456199,23154,51243,1,28,28,B1,tools,6,9(,3588.8419943,3905.8548924,317.0128981,0,0
3931,7&,1,52,11,61,21,31,41,Abstract_Concrete_6tasks_simseq_2seq_listtask_switchAB_fMRI,456199,23154,51243,1,29,29,A5,weapon,5,7&,3588.8419943,3915.8537537,327.0117594,0,0
3746,8*,1,51,12,61,22,32,42,Abstract_Concrete_6tasks_simseq_2seq_listtask_switchAB_fMRI,456199,23154,51243,1,30,30,B2,helmet,1,8*,3588.8419943,3926.8542492,338.0122549,0,0
2655,8*,1,51,12,62,21,31,42,Abstract_Concrete_6tasks_simseq_2seq_listtask_switchAB_fMRI,456199,23154,51243,1,31,31,A3,helmet,1,8*,3588.8419943,3937.8547743,349.01278,0,0
5307,4$,1,51,11,61,22,32,41,Abstract_Concrete_6tasks_simseq_2seq_listtask_switchAB_fMRI,456199,23154,51243,1,32,32,B3,vest,2,4$,3588.8419943,3947.8539287,359.0119344,0,0
1930,4$,1,52,11,62,22,32,42,Abstract_Concrete_6tasks_simseq_2seq_listtask_switchAB_fMRI,456199,23154,51243,1,33,33,A1,vest,2,4$,3588.8419943,3960.8555461,372.0135518,0,0
5073,7&,1,52,12,61,22,31,41,Abstract_Concrete_6tasks_simseq_2seq_listtask_switchAB_fMRI,456199,23154,51243,1,34,34,B4,weapon,5,7&,3588.8419943,3969.8522688,381.0102745,0,0
2476,3#,1,52,11,61,22,32,42,Abstract_Concrete_6tasks_simseq_2seq_listtask_switchAB_fMRI,456199,23154,51243,1,35,35,A2,glasses,3,3#,3588.8419943,3982.8556252,394.0136309,0,0
3869,8*,1,51,12,62,22,32,42,Abstract_Concrete_6tasks_simseq_2seq_listtask_switchAB_fMRI,456199,23154,51243,1,36,36,B2,helmet,1,8*,3588.8419943,3992.8533855,404.0113912,0,0
4179,9(,1,52,12,61,21,31,42,Abstract_Concrete_6tasks_simseq_2seq_listtask_switchAB_fMRI,456199,23154,51243,1,37,37,A4,tools,6,9(,3588.8419943,4003.8525103,415.010516,0,0
2771,3#,1,52,11,61,22,31,41,Abstract_Concrete_6tasks_simseq_2seq_listtask_switchAB_fMRI,456199,23154,51243,1,38,38,B5,glasses,3,3#,3588.8419943,4015.8529294,427.0109351,0,0
1679,7&,1,52,12,61,21,31,42,Abstract_Concrete_6tasks_simseq_2seq_listtask_switchAB_fMRI,456199,23154,51243,1,39,39,A5,weapon,5,7&,3588.8419943,4025.853534,437.0115397,0,0
3491,4$,1,52,11,62,22,32,41,Abstract_Concrete_6tasks_simseq_2seq_listtask_switchAB_fMRI,456199,23154,51243,1,40,40,B3,vest,2,4$,3588.8419943,4034.8527288,446.0107345,0,0
7471,9(,1,51,12,61,22,32,42,Abstract_Concrete_6tasks_simseq_2seq_listtask_switchAB_fMRI,456199,23154,51243,2,1,41,A4,tools,6,9(,4086.5228971,4094.533444,8.01054690000001,0,0
5375,4$,1,52,12,61,22,32,41,Abstract_Concrete_6tasks_simseq_2seq_listtask_switchAB_fMRI,456199,23154,51243,2,2,42,B3,vest,2,4$,4086.5228971,4109.5322729,23.0093757999998,0,0
6226,7&,1,51,11,62,21,32,42,Abstract_Concrete_6tasks_simseq_2seq_listtask_switchAB_fMRI,456199,23154,51243,2,3,43,A5,weapon,5,7&,4086.5228971,4122.535598,36.0127009000003,0,0
7258,7&,1,52,11,62,21,31,42,Abstract_Concrete_6tasks_simseq_2seq_listtask_switchAB_fMRI,456199,23154,51243,2,4,44,B4,weapon,5,7&,4086.5228971,4136.5347593,50.0118621999995,0,0
3880,9(,1,51,12,62,22,32,42,Abstract_Concrete_6tasks_simseq_2seq_listtask_switchAB_fMRI,456199,23154,51243,2,5,45,A4,tools,6,9(,4086.5228971,4151.5346139,65.0117168000002,0,0
2405,3#,1,52,12,61,21,31,41,Abstract_Concrete_6tasks_simseq_2seq_listtask_switchAB_fMRI,456199,23154,51243,2,6,46,B5,glasses,3,3#,4086.5228971,4162.5340144,76.0111173,0,0
2096,8*,1,51,11,62,21,31,42,Abstract_Concrete_6tasks_simseq_2seq_listtask_switchAB_fMRI,456199,23154,51243,2,7,47,A3,helmet,1,8*,4086.5228971,4172.5359539,86.0130568,0,0
1836,9(,1,52,12,62,21,31,41,Abstract_Concrete_6tasks_simseq_2seq_listtask_switchAB_fMRI,456199,23154,51243,2,8,48,B1,tools,6,9(,4086.5228971,4182.5370487,96.0141515999999,0,0
1628,4$,1,52,11,61,22,31,42,Abstract_Concrete_6tasks_simseq_2seq_listtask_switchAB_fMRI,456199,23154,51243,2,9,49,A1,vest,2,4$,4086.5228971,4191.5352174,105.0123203,0,0
1591,8*,1,52,11,61,22,31,41,Abstract_Concrete_6tasks_simseq_2seq_listtask_switchAB_fMRI,456199,23154,51243,2,10,50,B2,helmet,1,8*,4086.5228971,4200.5334488,114.0105517,0,0
1091,4$,1,52,12,61,22,32,42,Abstract_Concrete_6tasks_simseq_2seq_listtask_switchAB_fMRI,456199,23154,51243,2,11,51,A1,vest,2,4$,4086.5228971,4209.5361164,123.013219299999,0,0
2293,9(,1,51,11,61,21,31,42,Abstract_Concrete_6tasks_simseq_2seq_listtask_switchAB_fMRI,456199,23154,51243,2,12,52,B1,tools,6,9(,4086.5228971,4218.5354235,132.0125264,0,0
1626,8*,1,51,11,61,21,31,41,Abstract_Concrete_6tasks_simseq_2seq_listtask_switchAB_fMRI,456199,23154,51243,2,13,53,A3,helmet,1,8*,4086.5228971,4228.534382,142.0114849,0,0
1178,9(,1,51,12,61,21,32,42,Abstract_Concrete_6tasks_simseq_2seq_listtask_switchAB_fMRI,456199,23154,51243,2,14,54,B1,tools,6,9(,4086.5228971,4237.5339616,151.0110645,0,0
1689,3#,1,52,11,61,22,32,42,Abstract_Concrete_6tasks_simseq_2seq_listtask_switchAB_fMRI,456199,23154,51243,2,15,55,A2,glasses,3,3#,4086.5228971,4246.5345385,160.0116414,0,0
1624,3#,1,51,11,62,21,32,42,Abstract_Concrete_6tasks_simseq_2seq_listtask_switchAB_fMRI,456199,23154,51243,2,16,56,B5,glasses,3,3#,4086.5228971,4255.5349438,169.0120467,0,0
1959,9(,1,51,12,61,22,32,42,Abstract_Concrete_6tasks_simseq_2seq_listtask_switchAB_fMRI,456199,23154,51243,2,17,57,A4,tools,6,9(,4086.5228971,4264.5347637,178.0118666,0,0
5793,7&,1,52,11,62,22,31,42,Abstract_Concrete_6tasks_simseq_2seq_listtask_switchAB_fMRI,456199,23154,51243,2,18,58,B4,weapon,5,7&,4086.5228971,4273.5343817,187.0114846,0,0
2380,9(,1,52,12,61,22,32,41,Abstract_Concrete_6tasks_simseq_2seq_listtask_switchAB_fMRI,456199,23154,51243,2,19,59,A4,tools,6,9(,4086.5228971,4286.5359747,200.0130776,0,0
3256,3#,1,52,12,62,22,31,42,Abstract_Concrete_6tasks_simseq_2seq_listtask_switchAB_fMRI,456199,23154,51243,2,20,60,B5,glasses,3,3#,4086.5228971,4296.5353928,210.0124957,0,0
1341,3#,1,52,11,62,22,32,41,Abstract_Concrete_6tasks_simseq_2seq_listtask_switchAB_fMRI,456199,23154,51243,2,21,61,A2,glasses,3,3#,4086.5228971,4307.5383377,221.0154406,0,0
2734,8*,1,52,11,61,22,32,41,Abstract_Concrete_6tasks_simseq_2seq_listtask_switchAB_fMRI,456199,23154,51243,2,22,62,B2,helmet,1,8*,4086.5228971,4316.5351194,230.0122223,0,0
2064,7&,1,52,12,62,22,32,41,Abstract_Concrete_6tasks_simseq_2seq_listtask_switchAB_fMRI,456199,23154,51243,2,23,63,A5,weapon,5,7&,4086.5228971,4326.5345142,240.0116171,0,0
3710,4$,1,51,11,61,21,32,41,Abstract_Concrete_6tasks_simseq_2seq_listtask_switchAB_fMRI,456199,23154,51243,2,24,64,B3,vest,2,4$,4086.5228971,4336.5353926,250.0124955,0,0
1654,3#,1,52,11,61,21,32,42,Abstract_Concrete_6tasks_simseq_2seq_listtask_switchAB_fMRI,456199,23154,51243,2,25,65,A2,glasses,3,3#,4086.5228971,4347.533341,261.0104439,0,0
2458,7&,1,51,11,62,21,32,41,Abstract_Concrete_6tasks_simseq_2seq_listtask_switchAB_fMRI,456199,23154,51243,2,26,66,B4,weapon,5,7&,4086.5228971,4356.5343721,270.011475,0,0
2291,8*,1,51,12,62,21,32,42,Abstract_Concrete_6tasks_simseq_2seq_listtask_switchAB_fMRI,456199,23154,51243,2,27,67,A3,helmet,1,8*,4086.5228971,4366.5344601,280.011563,0,0
4052,8*,1,51,11,61,21,31,41,Abstract_Concrete_6tasks_simseq_2seq_listtask_switchAB_fMRI,456199,23154,51243,2,28,68,B2,helmet,1,8*,4086.5228971,4376.5334352,290.0105381,0,0
1461,4$,1,52,11,62,22,31,42,Abstract_Concrete_6tasks_simseq_2seq_listtask_switchAB_fMRI,456199,23154,51243,2,29,69,A1,vest,2,4$,4086.5228971,4388.5366992,302.0138021,0,0
1433,9(,1,52,12,62,21,32,42,Abstract_Concrete_6tasks_simseq_2seq_listtask_switchAB_fMRI,456199,23154,51243,2,30,70,B1,tools,6,9(,4086.5228971,4397.5361985,311.0133014,0,0
1261,4$,1,52,12,62,21,32,41,Abstract_Concrete_6tasks_simseq_2seq_listtask_switchAB_fMRI,456199,23154,51243,2,31,71,A1,vest,2,4$,4086.5228971,4406.5355005,320.0126034,0,0
3563,8*,1,51,12,61,21,31,42,Abstract_Concrete_6tasks_simseq_2seq_listtask_switchAB_fMRI,456199,23154,51243,2,32,72,B2,helmet,1,8*,4086.5228971,4415.53374,329.0108429,0,0
2992,8*,1,52,12,62,22,31,41,Abstract_Concrete_6tasks_simseq_2seq_listtask_switchAB_fMRI,456199,23154,51243,2,33,73,A3,helmet,1,8*,4086.5228971,4426.5349386,340.0120415,0,0
4214,4$,1,51,12,62,21,32,41,Abstract_Concrete_6tasks_simseq_2seq_listtask_switchAB_fMRI,456199,23154,51243,2,34,74,B3,vest,2,4$,4086.5228971,4437.5349022,351.0120051,0,0
1904,7&,1,52,11,61,21,31,42,Abstract_Concrete_6tasks_simseq_2seq_listtask_switchAB_fMRI,456199,23154,51243,2,35,75,A5,weapon,5,7&,4086.5228971,4449.535657,363.0127599,0,0
3893,7&,1,51,12,61,22,32,42,Abstract_Concrete_6tasks_simseq_2seq_listtask_switchAB_fMRI,456199,23154,51243,2,36,76,B4,weapon,5,7&,4086.5228971,4458.5346257,372.0117286,0,0
2151,3#,1,51,12,62,22,31,42,Abstract_Concrete_6tasks_simseq_2seq_listtask_switchAB_fMRI,456199,23154,51243,2,37,77,A2,glasses,3,3#,4086.5228971,4469.5343811,383.011484,0,0
3992,4$,1,52,12,61,21,32,42,Abstract_Concrete_6tasks_simseq_2seq_listtask_switchAB_fMRI,456199,23154,51243,2,38,78,B3,vest,2,4$,4086.5228971,4479.5336096,393.0107125,0,0
2427,7&,1,52,12,61,21,31,41,Abstract_Concrete_6tasks_simseq_2seq_listtask_switchAB_fMRI,456199,23154,51243,2,39,79,A5,weapon,5,7&,4086.5228971,4491.5348032,405.0119061,0,0
2134,3#,1,51,11,62,21,32,41,Abstract_Concrete_6tasks_simseq_2seq_listtask_switchAB_fMRI,456199,23154,51243,2,40,80,B5,glasses,3,3#,4086.5228971,4501.5343798,415.0114827,0,0
2527,3#,1,51,12,62,21,31,41,Abstract_Concrete_6tasks_simseq_2seq_listtask_switchAB_fMRI,456199,23154,51243,3,1,81,A2,glasses,3,3#,4551.6448278,4559.654427,8.00959920000059,0,0
2192,8*,1,52,12,62,22,32,41,Abstract_Concrete_6tasks_simseq_2seq_listtask_switchAB_fMRI,456199,23154,51243,3,2,82,B2,helmet,1,8*,4551.6448278,4569.6559513,18.0111235000004,0,0
1476,3#,1,51,11,62,21,32,41,Abstract_Concrete_6tasks_simseq_2seq_listtask_switchAB_fMRI,456199,23154,51243,3,3,83,A2,glasses,3,3#,4551.6448278,4579.6560294,28.0112016000003,0,0
2045,7&,1,51,11,62,22,32,42,Abstract_Concrete_6tasks_simseq_2seq_listtask_switchAB_fMRI,456199,23154,51243,3,4,84,B4,weapon,5,7&,4551.6448278,4588.6566604,37.0118326000002,0,0
4330,9(,1,52,12,62,22,31,42,Abstract_Concrete_6tasks_simseq_2seq_listtask_switchAB_fMRI,456199,23154,51243,3,5,85,A4,tools,6,9(,4551.6448278,4598.6588114,47.0139835999998,0,0
2333,9(,1,52,11,62,21,32,41,Abstract_Concrete_6tasks_simseq_2seq_listtask_switchAB_fMRI,456199,23154,51243,3,6,86,B1,tools,6,9(,4551.6448278,4610.6582194,59.0133916000004,0,0
1105,4$,1,52,11,61,22,32,41,Abstract_Concrete_6tasks_simseq_2seq_listtask_switchAB_fMRI,456199,23154,51243,3,7,87,A1,vest,2,4$,4551.6448278,4620.6610293,69.0162015000005,0,0
2028,3#,1,52,11,62,21,32,41,Abstract_Concrete_6tasks_simseq_2seq_listtask_switchAB_fMRI,456199,23154,51243,3,8,88,B5,glasses,3,3#,4551.6448278,4629.6560265,78.0111987,0,0
1729,8*,1,52,12,62,21,32,41,Abstract_Concrete_6tasks_simseq_2seq_listtask_switchAB_fMRI,456199,23154,51243,3,9,89,A3,helmet,1,8*,4551.6448278,4639.6562931,88.0114653000001,0,0
974,8*,1,51,12,61,22,31,41,Abstract_Concrete_6tasks_simseq_2seq_listtask_switchAB_fMRI,456199,23154,51243,3,10,90,B2,helmet,1,8*,4551.6448278,4648.658735,97.0139072000002,0,0
3572,9(,1,51,11,62,22,32,41,Abstract_Concrete_6tasks_simseq_2seq_listtask_switchAB_fMRI,456199,23154,51243,3,11,91,A4,tools,6,9(,4551.6448278,4656.6555873,105.0107595,0,0
4066,7&,1,51,11,62,22,32,42,Abstract_Concrete_6tasks_simseq_2seq_listtask_switchAB_fMRI,456199,23154,51243,3,12,92,B4,weapon,5,7&,4551.6448278,4667.6569633,116.0121355,0,0
2061,7&,1,51,12,62,22,31,42,Abstract_Concrete_6tasks_simseq_2seq_listtask_switchAB_fMRI,456199,23154,51243,3,13,93,A5,weapon,5,7&,4551.6448278,4679.6550129,128.0101851,0,0
2060,7&,1,51,11,62,22,31,42,Abstract_Concrete_6tasks_simseq_2seq_listtask_switchAB_fMRI,456199,23154,51243,3,14,94,B4,weapon,5,7&,4551.6448278,4689.6574842,138.0126564,0,0
1262,3#,1,51,12,62,22,32,42,Abstract_Concrete_6tasks_simseq_2seq_listtask_switchAB_fMRI,456199,23154,51243,3,15,95,A2,glasses,3,3#,4551.6448278,4699.6586789,148.0138511,0,0
2263,3#,1,51,11,62,21,32,42,Abstract_Concrete_6tasks_simseq_2seq_listtask_switchAB_fMRI,456199,23154,51243,3,16,96,B5,glasses,3,3#,4551.6448278,4708.6588401,157.0140123,0,0
2064,8*,1,51,11,62,22,31,41,Abstract_Concrete_6tasks_simseq_2seq_listtask_switchAB_fMRI,456199,23154,51243,3,17,97,A3,helmet,1,8*,4551.6448278,4718.6587524,167.0139246,0,0
2206,4$,1,51,11,62,22,32,42,Abstract_Concrete_6tasks_simseq_2seq_listtask_switchAB_fMRI,456199,23154,51243,3,18,98,B3,vest,2,4$,4551.6448278,4728.657984,177.013156200001,0,0
1538,7&,1,51,11,61,22,31,42,Abstract_Concrete_6tasks_simseq_2seq_listtask_switchAB_fMRI,456199,23154,51243,3,19,99,A5,weapon,5,7&,4551.6448278,4738.6574295,187.0126017,0,0
1173,3#,1,52,12,62,21,31,41,Abstract_Concrete_6tasks_simseq_2seq_listtask_switchAB_fMRI,456199,23154,51243,3,20,100,B5,glasses,3,3#,4551.6448278,4747.6564819,196.0116541,0,0
3988,9(,1,52,11,61,21,31,41,Abstract_Concrete_6tasks_simseq_2seq_listtask_switchAB_fMRI,456199,23154,51243,3,21,101,A4,tools,6,9(,4551.6448278,4756.657433,205.012605200001,0,0
1166,3#,1,51,11,62,21,32,41,Abstract_Concrete_6tasks_simseq_2seq_listtask_switchAB_fMRI,456199,23154,51243,3,22,102,B5,glasses,3,3#,4551.6448278,4768.6566848,217.011857,0,0
1143,4$,1,52,11,61,22,31,41,Abstract_Concrete_6tasks_simseq_2seq_listtask_switchAB_fMRI,456199,23154,51243,3,23,103,A1,vest,2,4$,4551.6448278,4777.6576771,226.0128493,0,0
3584,8*,1,51,12,61,22,32,42,Abstract_Concrete_6tasks_simseq_2seq_listtask_switchAB_fMRI,456199,23154,51243,3,24,104,B2,helmet,1,8*,4551.6448278,4786.6569127,235.0120849,0,0
2795,8*,1,52,11,62,22,31,41,Abstract_Concrete_6tasks_simseq_2seq_listtask_switchAB_fMRI,456199,23154,51243,3,25,105,A3,helmet,1,8*,4551.6448278,4797.6565027,246.0116749,0,0
1126,9(,1,51,12,61,22,32,41,Abstract_Concrete_6tasks_simseq_2seq_listtask_switchAB_fMRI,456199,23154,51243,3,26,106,B1,tools,6,9(,4551.6448278,4807.6562371,256.0114093,0,0
1941,7&,1,51,11,62,21,32,42,Abstract_Concrete_6tasks_simseq_2seq_listtask_switchAB_fMRI,456199,23154,51243,3,27,107,A5,weapon,5,7&,4551.6448278,4816.6560209,265.0111931,0,0
1155,9(,1,51,11,62,21,31,41,Abstract_Concrete_6tasks_simseq_2seq_listtask_switchAB_fMRI,456199,23154,51243,3,28,108,B1,tools,6,9(,4551.6448278,4825.655096,274.010268200001,0,0
3720,9(,1,52,11,61,21,31,42,Abstract_Concrete_6tasks_simseq_2seq_listtask_switchAB_fMRI,456199,23154,51243,3,29,109,A4,tools,6,9(,4551.6448278,4834.6561666,283.0113388,0,0
2581,4$,1,52,12,62,22,31,41,Abstract_Concrete_6tasks_simseq_2seq_listtask_switchAB_fMRI,456199,23154,51243,3,30,110,B3,vest,2,4$,4551.6448278,4845.656362,294.0115342,0,0
1168,4$,1,52,12,61,21,32,42,Abstract_Concrete_6tasks_simseq_2seq_listtask_switchAB_fMRI,456199,23154,51243,3,31,111,A1,vest,2,4$,4551.6448278,4855.6564475,304.0116197,0,0
1660,9(,1,51,11,62,21,31,41,Abstract_Concrete_6tasks_simseq_2seq_listtask_switchAB_fMRI,456199,23154,51243,3,32,112,B1,tools,6,9(,4551.6448278,4864.6565216,313.0116938,0,0
1653,7&,1,51,11,61,21,32,42,Abstract_Concrete_6tasks_simseq_2seq_listtask_switchAB_fMRI,456199,23154,51243,3,33,113,A5,weapon,5,7&,4551.6448278,4873.6544051,322.0095773,0,0
3709,8*,1,52,12,61,21,32,41,Abstract_Concrete_6tasks_simseq_2seq_listtask_switchAB_fMRI,456199,23154,51243,3,34,114,B2,helmet,1,8*,4551.6448278,4882.657402,331.0125742,0,0
1870,8*,1,52,11,61,21,32,41,Abstract_Concrete_6tasks_simseq_2seq_listtask_switchAB_fMRI,456199,23154,51243,3,35,115,A3,helmet,1,8*,4551.6448278,4893.6564046,342.011576800001,0,0
4280,7&,1,52,11,62,22,31,41,Abstract_Concrete_6tasks_simseq_2seq_listtask_switchAB_fMRI,456199,23154,51243,3,36,116,B4,weapon,5,7&,4551.6448278,4902.655744,351.0109162,0,0
1004,4$,1,52,12,62,21,32,41,Abstract_Concrete_6tasks_simseq_2seq_listtask_switchAB_fMRI,456199,23154,51243,3,37,117,A1,vest,2,4$,4551.6448278,4914.6567175,363.0118897,0,0
1909,4$,1,51,11,62,22,31,41,Abstract_Concrete_6tasks_simseq_2seq_listtask_switchAB_fMRI,456199,23154,51243,3,38,118,B3,vest,2,4$,4551.6448278,4923.6570044,372.0121766,0,0
2723,3#,1,52,12,61,22,32,42,Abstract_Concrete_6tasks_simseq_2seq_listtask_switchAB_fMRI,456199,23154,51243,3,39,119,A2,glasses,3,3#,4551.6448278,4932.6554612,381.0106334,0,0
1713,4$,1,52,11,62,21,31,42,Abstract_Concrete_6tasks_simseq_2seq_listtask_switchAB_fMRI,456199,23154,51243,3,40,120,B3,vest,2,4$,4551.6448278,4942.6565121,391.011684300001,0,0
4558,3#,1,52,11,62,21,32,41,Abstract_Concrete_6tasks_simseq_2seq_listtask_switchAB_fMRI,456199,23154,51243,4,1,121,A2,glasses,3,3#,5142.4759617,5150.4861255,8.01016379999965,0,0
3818,4$,1,51,12,62,22,31,41,Abstract_Concrete_6tasks_simseq_2seq_listtask_switchAB_fMRI,456199,23154,51243,4,2,122,B3,vest,2,4$,5142.4759617,5162.4877523,20.0117905999996,0,0
2620,9(,1,51,12,61,22,32,41,Abstract_Concrete_6tasks_simseq_2seq_listtask_switchAB_fMRI,456199,23154,51243,4,3,123,A4,tools,6,9(,5142.4759617,5173.4888161,31.0128543999999,0,0
2177,8*,1,51,12,62,22,31,42,Abstract_Concrete_6tasks_simseq_2seq_listtask_switchAB_fMRI,456199,23154,51243,4,4,124,B2,helmet,1,8*,5142.4759617,5183.4881063,41.0121446000003,0,0
1548,8*,1,51,12,61,22,32,42,Abstract_Concrete_6tasks_simseq_2seq_listtask_switchAB_fMRI,456199,23154,51243,4,5,125,A3,helmet,1,8*,5142.4759617,5193.4879003,51.0119385999997,0,0
2092,4$,1,51,11,62,21,31,41,Abstract_Concrete_6tasks_simseq_2seq_listtask_switchAB_fMRI,456199,23154,51243,4,6,126,B3,vest,2,4$,5142.4759617,5202.4892841,60.0133224000001,0,0
1137,3#,1,52,11,61,21,32,41,Abstract_Concrete_6tasks_simseq_2seq_listtask_switchAB_fMRI,456199,23154,51243,4,7,127,A2,glasses,3,3#,5142.4759617,5212.4895519,70.0135902000002,0,0
2470,8*,1,52,12,62,21,31,42,Abstract_Concrete_6tasks_simseq_2seq_listtask_switchAB_fMRI,456199,23154,51243,4,8,128,B2,helmet,1,8*,5142.4759617,5221.4872261,79.0112644000001,0,0
1796,3#,1,52,11,62,22,31,41,Abstract_Concrete_6tasks_simseq_2seq_listtask_switchAB_fMRI,456199,23154,51243,4,9,129,A2,glasses,3,3#,5142.4759617,5231.4877535,89.0117917999996,0,0
1450,3#,1,51,11,61,22,31,42,Abstract_Concrete_6tasks_simseq_2seq_listtask_switchAB_fMRI,456199,23154,51243,4,10,130,B5,glasses,3,3#,5142.4759617,5240.4880048,98.0120431000005,0,0
1072,4$,1,52,12,61,21,32,41,Abstract_Concrete_6tasks_simseq_2seq_listtask_switchAB_fMRI,456199,23154,51243,4,11,131,A1,vest,2,4$,5142.4759617,5249.4901089,107.0141472,0,0
1038,9(,1,51,11,61,21,31,41,Abstract_Concrete_6tasks_simseq_2seq_listtask_switchAB_fMRI,456199,23154,51243,4,12,132,B1,tools,6,9(,5142.4759617,5258.4881695,116.0122078,0,0
3688,9(,1,51,11,61,22,32,42,Abstract_Concrete_6tasks_simseq_2seq_listtask_switchAB_fMRI,456199,23154,51243,4,13,133,A4,tools,6,9(,5142.4759617,5267.4874721,125.0115104,0,0
1688,3#,1,52,11,62,22,31,42,Abstract_Concrete_6tasks_simseq_2seq_listtask_switchAB_fMRI,456199,23154,51243,4,14,134,B5,glasses,3,3#,5142.4759617,5278.4881903,136.0122286,0,0
1856,8*,1,52,12,62,21,31,42,Abstract_Concrete_6tasks_simseq_2seq_listtask_switchAB_fMRI,456199,23154,51243,4,15,135,A3,helmet,1,8*,5142.4759617,5287.4880512,145.0120895,0,0
1329,3#,1,52,11,61,21,31,41,Abstract_Concrete_6tasks_simseq_2seq_listtask_switchAB_fMRI,456199,23154,51243,4,16,136,B5,glasses,3,3#,5142.4759617,5296.4886174,154.0126557,0,0
2246,9(,1,51,12,62,21,31,42,Abstract_Concrete_6tasks_simseq_2seq_listtask_switchAB_fMRI,456199,23154,51243,4,17,137,A4,tools,6,9(,5142.4759617,5305.4885099,163.0125482,0,0
1411,8*,1,52,11,61,22,32,41,Abstract_Concrete_6tasks_simseq_2seq_listtask_switchAB_fMRI,456199,23154,51243,4,18,138,B2,helmet,1,8*,5142.4759617,5315.4883714,173.0124097,0,0
1669,9(,0,52,12,62,21,32,41,Abstract_Concrete_6tasks_simseq_2seq_listtask_switchAB_fMRI,456199,23154,51243,4,19,139,A1,vest,2,4$,5142.4759617,5324.4867322,182.0107705,5326.1707736,183.6948119
1430,3#,1,52,11,61,21,31,42,Abstract_Concrete_6tasks_simseq_2seq_listtask_switchAB_fMRI,456199,23154,51243,4,20,140,B5,glasses,3,3#,5142.4759617,5333.4884908,191.0125291,0,0
1120,4$,1,52,12,61,22,31,42,Abstract_Concrete_6tasks_simseq_2seq_listtask_switchAB_fMRI,456199,23154,51243,4,21,141,A1,vest,2,4$,5142.4759617,5342.4896732,200.0137115,0,0
1927,4$,1,52,12,61,22,32,42,Abstract_Concrete_6tasks_simseq_2seq_listtask_switchAB_fMRI,456199,23154,51243,4,22,142,B3,vest,2,4$,5142.4759617,5351.4896481,209.0136864,0,0
6365,9(,1,51,12,61,22,31,42,Abstract_Concrete_6tasks_simseq_2seq_listtask_switchAB_fMRI,456199,23154,51243,4,23,143,A4,tools,6,9(,5142.4759617,5360.4873627,218.011401,0,0
945,9(,1,51,11,62,22,31,42,Abstract_Concrete_6tasks_simseq_2seq_listtask_switchAB_fMRI,456199,23154,51243,4,24,144,B1,tools,6,9(,5142.4759617,5374.4901346,232.0141729,0,0
3968,3#,1,51,12,62,22,31,41,Abstract_Concrete_6tasks_simseq_2seq_listtask_switchAB_fMRI,456199,23154,51243,4,25,145,A2,glasses,3,3#,5142.4759617,5382.4867547,240.010793,0,0
4131,7&,1,52,11,61,22,31,41,Abstract_Concrete_6tasks_simseq_2seq_listtask_switchAB_fMRI,456199,23154,51243,4,26,146,B4,weapon,5,7&,5142.4759617,5393.4875055,251.0115438,0,0
2202,7&,1,52,12,61,22,31,42,Abstract_Concrete_6tasks_simseq_2seq_listtask_switchAB_fMRI,456199,23154,51243,4,27,147,A5,weapon,5,7&,5142.4759617,5405.4869884,263.0110267,0,0
2586,7&,1,52,12,62,22,32,42,Abstract_Concrete_6tasks_simseq_2seq_listtask_switchAB_fMRI,456199,23154,51243,4,28,148,B4,weapon,5,7&,5142.4759617,5415.4887495,273.0127878,0,0
1083,4$,1,52,11,61,21,31,41,Abstract_Concrete_6tasks_simseq_2seq_listtask_switchAB_fMRI,456199,23154,51243,4,29,149,A1,vest,2,4$,5142.4759617,5425.4873279,283.0113662,0,0
1121,9(,1,51,11,61,22,32,42,Abstract_Concrete_6tasks_simseq_2seq_listtask_switchAB_fMRI,456199,23154,51243,4,30,150,B1,tools,6,9(,5142.4759617,5434.4871288,292.0111671,0,0
1827,7&,1,52,11,61,22,32,42,Abstract_Concrete_6tasks_simseq_2seq_listtask_switchAB_fMRI,456199,23154,51243,4,31,151,A5,weapon,5,7&,5142.4759617,5443.4876814,301.0117197,0,0
1997,4$,1,52,11,61,21,31,42,Abstract_Concrete_6tasks_simseq_2seq_listtask_switchAB_fMRI,456199,23154,51243,4,32,152,B3,vest,2,4$,5142.4759617,5452.4864478,310.0104861,0,0
1476,7&,1,52,12,62,21,31,41,Abstract_Concrete_6tasks_simseq_2seq_listtask_switchAB_fMRI,456199,23154,51243,4,33,153,A5,weapon,5,7&,5142.4759617,5462.4870684,320.0111067,0,0
1831,7&,1,51,11,61,22,32,41,Abstract_Concrete_6tasks_simseq_2seq_listtask_switchAB_fMRI,456199,23154,51243,4,34,154,B4,weapon,5,7&,5142.4759617,5471.4872399,329.0112782,0,0
2431,8*,1,52,12,62,21,31,41,Abstract_Concrete_6tasks_simseq_2seq_listtask_switchAB_fMRI,456199,23154,51243,4,35,155,A3,helmet,1,8*,5142.4759617,5480.4860261,338.0100644,0,0
2703,8*,1,51,11,62,21,31,42,Abstract_Concrete_6tasks_simseq_2seq_listtask_switchAB_fMRI,456199,23154,51243,4,36,156,B2,helmet,1,8*,5142.4759617,5490.4878216,348.0118599,0,0
1850,8*,1,51,12,62,22,32,41,Abstract_Concrete_6tasks_simseq_2seq_listtask_switchAB_fMRI,456199,23154,51243,4,37,157,A3,helmet,1,8*,5142.4759617,5500.4874527,358.011491,0,0
1847,7&,1,52,11,61,21,31,41,Abstract_Concrete_6tasks_simseq_2seq_listtask_switchAB_fMRI,456199,23154,51243,4,38,158,B4,weapon,5,7&,5142.4759617,5509.486958,367.0109963,0,0
1258,7&,1,52,11,62,21,32,41,Abstract_Concrete_6tasks_simseq_2seq_listtask_switchAB_fMRI,456199,23154,51243,4,39,159,A5,weapon,5,7&,5142.4759617,5518.487518,376.0115563,0,0
1153,9(,1,51,11,61,21,32,42,Abstract_Concrete_6tasks_simseq_2seq_listtask_switchAB_fMRI,456199,23154,51243,4,40,160,B1,tools,6,9(,5142.4759617,5527.487599,385.0116373,0,0
3163,9(,1,52,11,61,22,32,41,Abstract_Concrete_6tasks_simseq_2seq_listtask_switchAB_fMRI,456199,23154,51243,5,1,161,A4,tools,6,9(,5584.3478424,5592.3573833,8.00954089999959,0,0
3364,7&,1,51,12,61,22,31,41,Abstract_Concrete_6tasks_simseq_2seq_listtask_switchAB_fMRI,456199,23154,51243,5,2,162,B4,weapon,5,7&,5584.3478424,5603.3609171,19.0130746999994,0,0
2295,8*,1,51,11,62,21,31,41,Abstract_Concrete_6tasks_simseq_2seq_listtask_switchAB_fMRI,456199,23154,51243,5,3,163,A3,helmet,1,8*,5584.3478424,5614.359143,30.0113005999992,0,0
4191,7&,1,51,12,62,22,31,41,Abstract_Concrete_6tasks_simseq_2seq_listtask_switchAB_fMRI,456199,23154,51243,5,4,164,B4,weapon,5,7&,5584.3478424,5624.3603642,40.0125217999994,0,0
1302,4$,1,52,11,62,22,31,41,Abstract_Concrete_6tasks_simseq_2seq_listtask_switchAB_fMRI,456199,23154,51243,5,5,165,A1,vest,2,4$,5584.3478424,5636.3604584,52.012616,0,0
3398,4$,1,52,12,62,21,31,42,Abstract_Concrete_6tasks_simseq_2seq_listtask_switchAB_fMRI,456199,23154,51243,5,6,166,B3,vest,2,4$,5584.3478424,5645.3648268,61.0169843999993,0,0
1687,7&,1,52,12,62,22,32,41,Abstract_Concrete_6tasks_simseq_2seq_listtask_switchAB_fMRI,456199,23154,51243,5,7,167,A5,weapon,5,7&,5584.3478424,5656.3617245,72.0138820999991,0,0
2662,7&,1,51,12,62,22,32,41,Abstract_Concrete_6tasks_simseq_2seq_listtask_switchAB_fMRI,456199,23154,51243,5,8,168,B4,weapon,5,7&,5584.3478424,5665.3587885,81.0109460999993,0,0
1961,8*,1,52,11,62,22,32,41,Abstract_Concrete_6tasks_simseq_2seq_listtask_switchAB_fMRI,456199,23154,51243,5,9,169,A3,helmet,1,8*,5584.3478424,5675.3593771,91.0115346999992,0,0
2447,7&,1,51,11,62,22,32,41,Abstract_Concrete_6tasks_simseq_2seq_listtask_switchAB_fMRI,456199,23154,51243,5,10,170,B4,weapon,5,7&,5584.3478424,5684.360776,100.0129336,0,0
1687,7&,1,51,11,62,21,31,42,Abstract_Concrete_6tasks_simseq_2seq_listtask_switchAB_fMRI,456199,23154,51243,5,11,171,A5,weapon,5,7&,5584.3478424,5694.3610728,110.0132304,0,0
1270,9(,1,51,12,61,22,31,42,Abstract_Concrete_6tasks_simseq_2seq_listtask_switchAB_fMRI,456199,23154,51243,5,12,172,B1,tools,6,9(,5584.3478424,5703.3602602,119.0124178,0,0
5605,9(,1,51,11,62,21,31,42,Abstract_Concrete_6tasks_simseq_2seq_listtask_switchAB_fMRI,456199,23154,51243,5,13,173,A4,tools,6,9(,5584.3478424,5712.3604423,128.012599899999,0,0
1770,4$,1,51,11,62,21,32,42,Abstract_Concrete_6tasks_simseq_2seq_listtask_switchAB_fMRI,456199,23154,51243,5,14,174,B3,vest,2,4$,5584.3478424,5725.3574483,141.0096059,0,0
1504,4$,1,51,11,61,21,31,41,Abstract_Concrete_6tasks_simseq_2seq_listtask_switchAB_fMRI,456199,23154,51243,5,15,175,A1,vest,2,4$,5584.3478424,5734.3591739,150.0113315,0,0
1127,9(,1,52,12,61,21,32,41,Abstract_Concrete_6tasks_simseq_2seq_listtask_switchAB_fMRI,456199,23154,51243,5,16,176,B1,tools,6,9(,5584.3478424,5743.3616336,159.013791199999,0,0
1835,3#,1,51,12,62,21,32,41,Abstract_Concrete_6tasks_simseq_2seq_listtask_switchAB_fMRI,456199,23154,51243,5,17,177,A2,glasses,3,3#,5584.3478424,5752.3591222,168.011279799999,0,0
1854,4$,1,51,12,62,21,32,41,Abstract_Concrete_6tasks_simseq_2seq_listtask_switchAB_fMRI,456199,23154,51243,5,18,178,B3,vest,2,4$,5584.3478424,5761.3590522,177.0112098,0,0
1294,4$,1,51,12,62,21,31,42,Abstract_Concrete_6tasks_simseq_2seq_listtask_switchAB_fMRI,456199,23154,51243,5,19,179,A1,vest,2,4$,5584.3478424,5770.3593263,186.0114839,0,0
1629,3#,1,52,12,61,21,31,42,Abstract_Concrete_6tasks_simseq_2seq_listtask_switchAB_fMRI,456199,23154,51243,5,20,180,B5,glasses,3,3#,5584.3478424,5779.3589141,195.0110717,0,0
2406,8*,1,51,12,61,21,32,42,Abstract_Concrete_6tasks_simseq_2seq_listtask_switchAB_fMRI,456199,23154,51243,5,21,181,A3,helmet,1,8*,5584.3478424,5788.3599532,204.012110799999,0,0
1598,9(,1,52,11,61,21,31,41,Abstract_Concrete_6tasks_simseq_2seq_listtask_switchAB_fMRI,456199,23154,51243,5,22,182,B1,tools,6,9(,5584.3478424,5798.3613608,214.013518399999,0,0
1172,7&,1,52,11,61,21,31,42,Abstract_Concrete_6tasks_simseq_2seq_listtask_switchAB_fMRI,456199,23154,51243,5,23,183,A5,weapon,5,7&,5584.3478424,5807.3591634,223.011321,0,0
3358,8*,1,51,11,62,22,31,42,Abstract_Concrete_6tasks_simseq_2seq_listtask_switchAB_fMRI,456199,23154,51243,5,24,184,B2,helmet,1,8*,5584.3478424,5816.3594743,232.0116319,0,0
2086,7&,0,51,11,62,21,31,41,Abstract_Concrete_6tasks_simseq_2seq_listtask_switchAB_fMRI,456199,23154,51243,5,25,185,A4,tools,6,9(,5584.3478424,5827.3599353,243.0120929,5829.4617395,245.113897099999
1389,8*,1,51,12,61,22,32,42,Abstract_Concrete_6tasks_simseq_2seq_listtask_switchAB_fMRI,456199,23154,51243,5,26,186,B2,helmet,1,8*,5584.3478424,5837.3577043,253.009861899999,0,0
3571,3#,1,52,12,62,21,32,42,Abstract_Concrete_6tasks_simseq_2seq_listtask_switchAB_fMRI,456199,23154,51243,5,27,187,A2,glasses,3,3#,5584.3478424,5846.3592266,262.011384199999,0,0
1214,9(,1,52,12,62,21,32,42,Abstract_Concrete_6tasks_simseq_2seq_listtask_switchAB_fMRI,456199,23154,51243,5,28,188,B1,tools,6,9(,5584.3478424,5857.3607868,273.012944399999,0,0
1981,4$,1,51,11,62,22,31,42,Abstract_Concrete_6tasks_simseq_2seq_listtask_switchAB_fMRI,456199,23154,51243,5,29,189,A1,vest,2,4$,5584.3478424,5866.3612185,282.0133761,0,0
3184,4$,1,51,11,62,21,31,41,Abstract_Concrete_6tasks_simseq_2seq_listtask_switchAB_fMRI,456199,23154,51243,5,30,190,B3,vest,2,4$,5584.3478424,5875.3585892,291.0107468,0,0
1220,7&,1,52,11,62,21,31,42,Abstract_Concrete_6tasks_simseq_2seq_listtask_switchAB_fMRI,456199,23154,51243,5,31,191,A5,weapon,5,7&,5584.3478424,5886.3610647,302.013222299999,0,0
1350,8*,1,52,12,62,21,32,41,Abstract_Concrete_6tasks_simseq_2seq_listtask_switchAB_fMRI,456199,23154,51243,5,32,192,B2,helmet,1,8*,5584.3478424,5895.359772,311.011929599999,0,0
1813,3#,0,51,12,62,21,32,42,Abstract_Concrete_6tasks_simseq_2seq_listtask_switchAB_fMRI,456199,23154,51243,5,33,193,A3,helmet,1,8*,5584.3478424,5904.3597981,320.0119557,5906.1862632,321.8384208
1541,3#,1,51,11,62,22,32,42,Abstract_Concrete_6tasks_simseq_2seq_listtask_switchAB_fMRI,456199,23154,51243,5,34,194,B5,glasses,3,3#,5584.3478424,5913.36031,329.0124676,0,0
2586,9(,1,52,12,61,21,31,42,Abstract_Concrete_6tasks_simseq_2seq_listtask_switchAB_fMRI,456199,23154,51243,5,35,195,A4,tools,6,9(,5584.3478424,5922.3608917,338.0130493,0,0
1561,3#,1,51,11,62,21,32,42,Abstract_Concrete_6tasks_simseq_2seq_listtask_switchAB_fMRI,456199,23154,51243,5,36,196,B5,glasses,3,3#,5584.3478424,5932.3615094,348.013666999999,0,0
1130,3#,1,51,12,61,21,32,41,Abstract_Concrete_6tasks_simseq_2seq_listtask_switchAB_fMRI,456199,23154,51243,5,37,197,A2,glasses,3,3#,5584.3478424,5941.3613537,357.0135113,0,0
1980,8*,1,52,12,62,21,32,41,Abstract_Concrete_6tasks_simseq_2seq_listtask_switchAB_fMRI,456199,23154,51243,5,38,198,B2,helmet,1,8*,5584.3478424,5950.3589682,366.0111258,0,0
1143,3#,1,51,11,62,21,31,42,Abstract_Concrete_6tasks_simseq_2seq_listtask_switchAB_fMRI,456199,23154,51243,5,39,199,A2,glasses,3,3#,5584.3478424,5959.3588041,375.0109617,0,0
1853,3#,1,52,11,61,21,31,42,Abstract_Concrete_6tasks_simseq_2seq_listtask_switchAB_fMRI,456199,23154,51243,5,40,200,B5,glasses,3,3#,5584.3478424,5968.3589835,384.0111411,0,0
1576,4$,1,52,11,61,22,32,42,Abstract_Concrete_6tasks_simseq_2seq_listtask_switchAB_fMRI,456199,23154,51243,6,1,201,A1,vest,2,4$,6020.3044745,6028.3143561,8.00988159999997,0,0
5151,7&,1,51,12,62,21,31,41,Abstract_Concrete_6tasks_simseq_2seq_listtask_switchAB_fMRI,456199,23154,51243,6,2,202,B4,weapon,5,7&,6020.3044745,6037.3147729,17.0102984000005,0,0
1717,8*,1,52,11,61,21,32,41,Abstract_Concrete_6tasks_simseq_2seq_listtask_switchAB_fMRI,456199,23154,51243,6,3,203,A3,helmet,1,8*,6020.3044745,6050.318506,30.0140314999999,0,0
1875,4$,1,52,12,61,21,32,41,Abstract_Concrete_6tasks_simseq_2seq_listtask_switchAB_fMRI,456199,23154,51243,6,4,204,B3,vest,2,4$,6020.3044745,6059.3160596,39.0115851,0,0
1580,8*,1,52,12,62,21,32,41,Abstract_Concrete_6tasks_simseq_2seq_listtask_switchAB_fMRI,456199,23154,51243,6,5,205,A3,helmet,1,8*,6020.3044745,6068.3186707,48.0141962000007,0,0
2085,4$,1,52,11,61,22,31,42,Abstract_Concrete_6tasks_simseq_2seq_listtask_switchAB_fMRI,456199,23154,51243,6,6,206,B3,vest,2,4$,6020.3044745,6077.3167285,57.0122540000002,0,0
1522,3#,1,52,12,61,22,31,42,Abstract_Concrete_6tasks_simseq_2seq_listtask_switchAB_fMRI,456199,23154,51243,6,7,207,A2,glasses,3,3#,6020.3044745,6087.3166922,67.0122177000003,0,0
1318,9(,1,51,12,61,21,31,42,Abstract_Concrete_6tasks_simseq_2seq_listtask_switchAB_fMRI,456199,23154,51243,6,8,208,B1,tools,6,9(,6020.3044745,6096.3257361,76.0212615999999,0,0
850,4$,1,51,12,62,22,31,42,Abstract_Concrete_6tasks_simseq_2seq_listtask_switchAB_fMRI,456199,23154,51243,6,9,209,A1,vest,2,4$,6020.3044745,6105.3158652,85.0113907000004,0,0
1904,3#,1,52,11,62,22,32,41,Abstract_Concrete_6tasks_simseq_2seq_listtask_switchAB_fMRI,456199,23154,51243,6,10,210,B5,glasses,3,3#,6020.3044745,6113.316194,93.0117195000003,0,0
1337,3#,1,51,12,62,22,32,41,Abstract_Concrete_6tasks_simseq_2seq_listtask_switchAB_fMRI,456199,23154,51243,6,11,211,A2,glasses,3,3#,6020.3044745,6122.3154734,102.0109989,0,0
2463,7&,1,51,11,61,21,32,41,Abstract_Concrete_6tasks_simseq_2seq_listtask_switchAB_fMRI,456199,23154,51243,6,12,212,B4,weapon,5,7&,6020.3044745,6131.3162907,111.0118162,0,0
1273,3#,0,51,12,62,22,31,42,Abstract_Concrete_6tasks_simseq_2seq_listtask_switchAB_fMRI,456199,23154,51243,6,13,213,A5,weapon,5,7&,6020.3044745,6141.3164539,121.0119794,6142.6060056,122.3015311
3084,8*,1,52,11,61,21,32,41,Abstract_Concrete_6tasks_simseq_2seq_listtask_switchAB_fMRI,456199,23154,51243,6,14,214,B2,helmet,1,8*,6020.3044745,6150.3148893,130.0104148,0,0
1427,3#,1,51,12,61,21,32,41,Abstract_Concrete_6tasks_simseq_2seq_listtask_switchAB_fMRI,456199,23154,51243,6,15,215,A2,glasses,3,3#,6020.3044745,6161.3170092,141.0125347,0,0
2016,8*,1,52,11,61,21,32,41,Abstract_Concrete_6tasks_simseq_2seq_listtask_switchAB_fMRI,456199,23154,51243,6,16,216,B2,helmet,1,8*,6020.3044745,6170.3176859,150.0132114,0,0
2193,7&,1,51,11,62,21,31,41,Abstract_Concrete_6tasks_simseq_2seq_listtask_switchAB_fMRI,456199,23154,51243,6,17,217,A5,weapon,5,7&,6020.3044745,6180.3179696,160.0134951,0,0
967,9(,1,51,11,62,21,31,42,Abstract_Concrete_6tasks_simseq_2seq_listtask_switchAB_fMRI,456199,23154,51243,6,18,218,B1,tools,6,9(,6020.3044745,6190.3155664,170.0110919,0,0
4349,9(,1,51,11,61,21,32,42,Abstract_Concrete_6tasks_simseq_2seq_listtask_switchAB_fMRI,456199,23154,51243,6,19,219,A4,tools,6,9(,6020.3044745,6198.3152205,178.010746,0,0
1659,9(,1,52,12,62,22,31,41,Abstract_Concrete_6tasks_simseq_2seq_listtask_switchAB_fMRI,456199,23154,51243,6,20,220,B1,tools,6,9(,6020.3044745,6210.315628,190.011153500001,0,0
2546,3#,1,52,12,61,21,32,42,Abstract_Concrete_6tasks_simseq_2seq_listtask_switchAB_fMRI,456199,23154,51243,6,21,221,A2,glasses,3,3#,6020.3044745,6219.3167732,199.0122987,0,0
1500,9(,1,51,11,61,22,31,42,Abstract_Concrete_6tasks_simseq_2seq_listtask_switchAB_fMRI,456199,23154,51243,6,22,222,B1,tools,6,9(,6020.3044745,6229.3153851,209.0109106,0,0
4529,8*,1,51,12,62,21,31,41,Abstract_Concrete_6tasks_simseq_2seq_listtask_switchAB_fMRI,456199,23154,51243,6,23,223,A3,helmet,1,8*,6020.3044745,6238.3165348,218.0120603,0,0
2166,4$,1,51,11,62,21,32,41,Abstract_Concrete_6tasks_simseq_2seq_listtask_switchAB_fMRI,456199,23154,51243,6,24,224,B3,vest,2,4$,6020.3044745,6250.3160569,230.0115824,0,0
1234,7&,1,52,12,61,21,31,42,Abstract_Concrete_6tasks_simseq_2seq_listtask_switchAB_fMRI,456199,23154,51243,6,25,225,A5,weapon,5,7&,6020.3044745,6260.3165256,240.0120511,0,0
1147,3#,1,52,11,61,21,31,41,Abstract_Concrete_6tasks_simseq_2seq_listtask_switchAB_fMRI,456199,23154,51243,6,26,226,B5,glasses,3,3#,6020.3044745,6269.317284,249.0128095,0,0
3015,9(,1,52,12,61,22,32,42,Abstract_Concrete_6tasks_simseq_2seq_listtask_switchAB_fMRI,456199,23154,51243,6,27,227,A4,tools,6,9(,6020.3044745,6278.3174201,258.0129456,0,0
1358,3#,1,51,11,62,22,31,41,Abstract_Concrete_6tasks_simseq_2seq_listtask_switchAB_fMRI,456199,23154,51243,6,28,228,B5,glasses,3,3#,6020.3044745,6289.3161162,269.0116417,0,0
3781,9(,1,52,11,62,21,32,42,Abstract_Concrete_6tasks_simseq_2seq_listtask_switchAB_fMRI,456199,23154,51243,6,29,229,A4,tools,6,9(,6020.3044745,6298.3173048,278.0128303,0,0
3330,3#,1,51,11,62,22,32,42,Abstract_Concrete_6tasks_simseq_2seq_listtask_switchAB_fMRI,456199,23154,51243,6,30,230,B5,glasses,3,3#,6020.3044745,6309.3168072,289.0123327,0,0
2840,7&,1,52,11,62,21,31,41,Abstract_Concrete_6tasks_simseq_2seq_listtask_switchAB_fMRI,456199,23154,51243,6,31,231,A5,weapon,5,7&,6020.3044745,6320.3152461,300.0107716,0,0
1939,3#,0,51,12,62,21,32,41,Abstract_Concrete_6tasks_simseq_2seq_listtask_switchAB_fMRI,456199,23154,51243,6,32,232,B2,helmet,1,8*,6020.3044745,6330.3156604,310.0111859,6332.2674591,311.962984600001
2432,4$,1,52,11,61,22,32,42,Abstract_Concrete_6tasks_simseq_2seq_listtask_switchAB_fMRI,456199,23154,51243,6,33,233,A1,vest,2,4$,6020.3044745,6339.3166201,319.012145600001,0,0
3138,7&,1,52,12,61,21,32,42,Abstract_Concrete_6tasks_simseq_2seq_listtask_switchAB_fMRI,456199,23154,51243,6,34,234,B4,weapon,5,7&,6020.3044745,6349.3165894,329.012114900001,0,0
920,4$,1,51,11,61,21,31,41,Abstract_Concrete_6tasks_simseq_2seq_listtask_switchAB_fMRI,456199,23154,51243,6,35,235,A1,vest,2,4$,6020.3044745,6360.3155838,340.0111093,0,0
4686,4$,1,52,11,62,22,31,42,Abstract_Concrete_6tasks_simseq_2seq_listtask_switchAB_fMRI,456199,23154,51243,6,36,236,B3,vest,2,4$,6020.3044745,6368.317825,348.0133505,0,0
2158,8*,1,52,12,61,22,31,42,Abstract_Concrete_6tasks_simseq_2seq_listtask_switchAB_fMRI,456199,23154,51243,6,37,237,A3,helmet,1,8*,6020.3044745,6380.3153929,360.0109184,0,0
2580,7&,1,51,11,62,22,31,42,Abstract_Concrete_6tasks_simseq_2seq_listtask_switchAB_fMRI,456199,23154,51243,6,38,238,B4,weapon,5,7&,6020.3044745,6390.3164842,370.0120097,0,0
2723,9(,1,52,12,61,21,31,41,Abstract_Concrete_6tasks_simseq_2seq_listtask_switchAB_fMRI,456199,23154,51243,6,39,239,A4,tools,6,9(,6020.3044745,6400.3172823,380.012807800001,0,0
1596,8*,1,52,11,61,22,31,42,Abstract_Concrete_6tasks_simseq_2seq_listtask_switchAB_fMRI,456199,23154,51243,6,40,240,B2,helmet,1,8*,6020.3044745,6410.3157946,390.0113201,0,0
