rt1,resp1,correct1,features_1,features_2,features_3,features_4,features_5,features_6,ExpName,subNo,seqA,seqB,block,trial,trialnum,cuetype,task,subtaskcode,corr_resp1,onsetTime_s,onsetTime_cue,onset_cue,onsetTime_cue_fb,onset_cue_fb
3239,3#,1,61,31,12,41,21,52,Abstract_Concrete_6tasks_simseq_2seq_listtask_switchAB_fMRI,497627,54321,23514,1,1,1,B1,vest,2,3#,4176.8708896,4184.8801799,8.00929030000043,0,0
6770,8*,1,61,32,12,42,21,51,Abstract_Concrete_6tasks_simseq_2seq_listtask_switchAB_fMRI,497627,54321,23514,1,2,2,A3,glasses,3,8*,4176.8708896,4195.881889,19.0109994000004,0,0
4509,7&,1,62,32,11,42,21,51,Abstract_Concrete_6tasks_simseq_2seq_listtask_switchAB_fMRI,497627,54321,23514,1,3,3,B3,tools,6,7&,4176.8708896,4209.8817493,33.0108596999999,0,0
6156,3#,1,62,32,11,41,21,51,Abstract_Concrete_6tasks_simseq_2seq_listtask_switchAB_fMRI,497627,54321,23514,1,4,4,A4,vest,2,3#,4176.8708896,4221.8844552,45.0135656000002,0,0
6063,9(,0,62,31,12,42,22,51,Abstract_Concrete_6tasks_simseq_2seq_listtask_switchAB_fMRI,497627,54321,23514,1,5,5,B5,weapon,5,2@,4176.8708896,4235.8821903,59.0113007,4241.9675641,65.0966745000005
2744,7&,1,62,32,12,42,22,51,Abstract_Concrete_6tasks_simseq_2seq_listtask_switchAB_fMRI,497627,54321,23514,1,6,6,A1,tools,6,7&,4176.8708896,4249.8824023,73.0115126999999,0,0
5545,8*,1,61,31,12,41,21,51,Abstract_Concrete_6tasks_simseq_2seq_listtask_switchAB_fMRI,497627,54321,23514,1,7,7,B2,glasses,3,8*,4176.8708896,4259.882408,83.0115184000006,0,0
4669,8*,1,62,31,12,42,21,51,Abstract_Concrete_6tasks_simseq_2seq_listtask_switchAB_fMRI,497627,54321,23514,1,8,8,A3,glasses,3,8*,4176.8708896,4272.8846255,96.0137359,0,0
6568,9(,1,61,31,12,41,22,52,Abstract_Concrete_6tasks_simseq_2seq_listtask_switchAB_fMRI,497627,54321,23514,1,9,9,B4,helmet,1,9(,4176.8708896,4284.8821006,108.011211,0,0
5197,9(,1,62,32,11,42,22,52,Abstract_Concrete_6tasks_simseq_2seq_listtask_switchAB_fMRI,497627,54321,23514,1,10,10,A5,helmet,1,9(,4176.8708896,4298.8827101,122.0118205,0,0
4867,7&,1,61,32,11,42,21,51,Abstract_Concrete_6tasks_simseq_2seq_listtask_switchAB_fMRI,497627,54321,23514,1,11,11,B3,tools,6,7&,4176.8708896,4311.8829524,135.0120628,0,0
7331,8*,1,61,31,11,41,22,51,Abstract_Concrete_6tasks_simseq_2seq_listtask_switchAB_fMRI,497627,54321,23514,1,12,12,A3,glasses,3,8*,4176.8708896,4323.882591,147.0117014,0,0
4578,3#,1,61,31,11,42,21,52,Abstract_Concrete_6tasks_simseq_2seq_listtask_switchAB_fMRI,497627,54321,23514,1,13,13,B1,vest,2,3#,4176.8708896,4338.8834426,162.012553,0,0
5588,9(,1,61,31,12,41,21,51,Abstract_Concrete_6tasks_simseq_2seq_listtask_switchAB_fMRI,497627,54321,23514,1,14,14,A5,helmet,1,9(,4176.8708896,4350.8840383,174.0131487,0,0
4738,9(,1,61,31,12,42,22,52,Abstract_Concrete_6tasks_simseq_2seq_listtask_switchAB_fMRI,497627,54321,23514,1,15,15,B4,helmet,1,9(,4176.8708896,4363.8828002,187.0119106,0,0
8803,3#,1,62,31,12,42,21,52,Abstract_Concrete_6tasks_simseq_2seq_listtask_switchAB_fMRI,497627,54321,23514,1,16,16,A4,vest,2,3#,4176.8708896,4375.8820357,199.011146100001,0,0
5076,7&,1,62,32,12,41,21,52,Abstract_Concrete_6tasks_simseq_2seq_listtask_switchAB_fMRI,497627,54321,23514,1,17,17,B3,tools,6,7&,4176.8708896,4391.8815129,215.010623300001,0,0
6385,8*,1,62,32,11,42,21,51,Abstract_Concrete_6tasks_simseq_2seq_listtask_switchAB_fMRI,497627,54321,23514,1,18,18,A3,glasses,3,8*,4176.8708896,4404.8826603,228.0117707,0,0
4722,8*,1,61,32,12,42,21,52,Abstract_Concrete_6tasks_simseq_2seq_listtask_switchAB_fMRI,497627,54321,23514,1,19,19,B2,glasses,3,8*,4176.8708896,4418.8839581,242.0130685,0,0
0,,0,62,32,11,42,21,51,Abstract_Concrete_6tasks_simseq_2seq_listtask_switchAB_fMRI,497627,54321,23514,1,20,20,A4,vest,2,3#,4176.8708896,4430.8820503,254.0111607,4439.9106555,263.0397659
1543,3#,1,61,32,12,42,21,51,Abstract_Concrete_6tasks_simseq_2seq_listtask_switchAB_fMRI,497627,54321,23514,1,21,21,B1,vest,2,3#,4176.8708896,4447.8821067,271.0112171,0,0
2365,7&,1,61,31,11,42,21,52,Abstract_Concrete_6tasks_simseq_2seq_listtask_switchAB_fMRI,497627,54321,23514,1,22,22,A1,tools,6,7&,4176.8708896,4456.882582,280.0116924,0,0
3534,8*,1,61,32,12,42,22,51,Abstract_Concrete_6tasks_simseq_2seq_listtask_switchAB_fMRI,497627,54321,23514,1,23,23,B2,glasses,3,8*,4176.8708896,4466.8842579,290.0133683,0,0
3195,2@,1,62,31,12,42,21,51,Abstract_Concrete_6tasks_simseq_2seq_listtask_switchAB_fMRI,497627,54321,23514,1,24,24,A2,weapon,5,2@,4176.8708896,4477.8817091,301.0108195,0,0
5684,9(,1,62,31,11,41,21,52,Abstract_Concrete_6tasks_simseq_2seq_listtask_switchAB_fMRI,497627,54321,23514,1,25,25,B4,helmet,1,9(,4176.8708896,4488.882667,312.0117774,0,0
5257,9(,1,61,32,11,41,22,51,Abstract_Concrete_6tasks_simseq_2seq_listtask_switchAB_fMRI,497627,54321,23514,1,26,26,A5,helmet,1,9(,4176.8708896,4501.8821619,325.0112723,0,0
4053,8*,1,61,31,11,42,21,52,Abstract_Concrete_6tasks_simseq_2seq_listtask_switchAB_fMRI,497627,54321,23514,1,27,27,B2,glasses,3,8*,4176.8708896,4514.8844873,338.0135977,0,0
2279,7&,1,61,31,12,41,22,52,Abstract_Concrete_6tasks_simseq_2seq_listtask_switchAB_fMRI,497627,54321,23514,1,28,28,A1,tools,6,7&,4176.8708896,4526.8824246,350.011535000001,0,0
4425,7&,1,62,32,12,41,22,52,Abstract_Concrete_6tasks_simseq_2seq_listtask_switchAB_fMRI,497627,54321,23514,1,29,29,B3,tools,6,7&,4176.8708896,4536.8825352,360.011645600001,0,0
4871,3#,1,61,31,12,41,21,52,Abstract_Concrete_6tasks_simseq_2seq_listtask_switchAB_fMRI,497627,54321,23514,1,30,30,A4,vest,2,3#,4176.8708896,4548.8834877,372.0125981,0,0
7418,9(,1,62,32,11,41,22,52,Abstract_Concrete_6tasks_simseq_2seq_listtask_switchAB_fMRI,497627,54321,23514,1,31,31,B4,helmet,1,9(,4176.8708896,4560.8819304,384.0110408,0,0
3120,2@,1,61,32,12,41,21,51,Abstract_Concrete_6tasks_simseq_2seq_listtask_switchAB_fMRI,497627,54321,23514,1,32,32,A2,weapon,5,2@,4176.8708896,4575.8824361,399.0115465,0,0
1876,3#,1,61,32,11,41,22,52,Abstract_Concrete_6tasks_simseq_2seq_listtask_switchAB_fMRI,497627,54321,23514,1,33,33,B1,vest,2,3#,4176.8708896,4586.8816953,410.0108057,0,0
5090,9(,1,61,31,12,41,22,52,Abstract_Concrete_6tasks_simseq_2seq_listtask_switchAB_fMRI,497627,54321,23514,1,34,34,A5,helmet,1,9(,4176.8708896,4595.8819445,419.0110549,0,0
5253,2@,1,61,32,11,42,22,51,Abstract_Concrete_6tasks_simseq_2seq_listtask_switchAB_fMRI,497627,54321,23514,1,35,35,B5,weapon,5,2@,4176.8708896,4608.8827425,432.0118529,0,0
0,,0,61,31,11,42,21,52,Abstract_Concrete_6tasks_simseq_2seq_listtask_switchAB_fMRI,497627,54321,23514,1,36,36,A2,weapon,5,2@,4176.8708896,4621.8823408,445.0114512,4630.900838,454.0299484
8846,2@,1,62,32,11,42,22,52,Abstract_Concrete_6tasks_simseq_2seq_listtask_switchAB_fMRI,497627,54321,23514,1,37,37,B5,weapon,5,2@,4176.8708896,4638.8822108,462.011321200001,0,0
4307,7&,1,62,31,12,42,22,51,Abstract_Concrete_6tasks_simseq_2seq_listtask_switchAB_fMRI,497627,54321,23514,1,38,38,A1,tools,6,7&,4176.8708896,4654.883004,478.0121144,0,0
2725,2@,1,62,31,12,42,22,52,Abstract_Concrete_6tasks_simseq_2seq_listtask_switchAB_fMRI,497627,54321,23514,1,39,39,B5,weapon,5,2@,4176.8708896,4666.8837569,490.0128673,0,0
2420,2@,1,61,32,11,41,22,51,Abstract_Concrete_6tasks_simseq_2seq_listtask_switchAB_fMRI,497627,54321,23514,1,40,40,A2,weapon,5,2@,4176.8708896,4676.8814453,500.010555700001,0,0
6055,9(,1,62,32,12,42,21,52,Abstract_Concrete_6tasks_simseq_2seq_listtask_switchAB_fMRI,497627,54321,23514,2,1,41,A5,helmet,1,9(,4737.8645516,4745.8744474,8.00989579999987,0,0
2625,2@,1,62,31,12,41,22,51,Abstract_Concrete_6tasks_simseq_2seq_listtask_switchAB_fMRI,497627,54321,23514,2,2,42,B5,weapon,5,2@,4737.8645516,4759.8748991,22.0103475000005,0,0
8439,9(,1,61,31,12,42,22,52,Abstract_Concrete_6tasks_simseq_2seq_listtask_switchAB_fMRI,497627,54321,23514,2,3,43,A5,helmet,1,9(,4737.8645516,4769.8769407,32.0123891000003,0,0
4664,7&,1,61,32,12,41,22,52,Abstract_Concrete_6tasks_simseq_2seq_listtask_switchAB_fMRI,497627,54321,23514,2,4,44,B3,tools,6,7&,4737.8645516,4785.876924,48.0123724000005,0,0
2737,7&,1,62,31,12,41,21,52,Abstract_Concrete_6tasks_simseq_2seq_listtask_switchAB_fMRI,497627,54321,23514,2,5,45,A1,tools,6,7&,4737.8645516,4797.8769502,60.0123985999999,0,0
2730,2@,1,62,31,12,42,21,52,Abstract_Concrete_6tasks_simseq_2seq_listtask_switchAB_fMRI,497627,54321,23514,2,6,46,B5,weapon,5,2@,4737.8645516,4807.8753954,70.0108438000007,0,0
0,,0,62,31,11,42,21,51,Abstract_Concrete_6tasks_simseq_2seq_listtask_switchAB_fMRI,497627,54321,23514,2,7,47,A4,vest,2,3#,4737.8645516,4817.8775555,80.0130039000005,4826.9058589,89.0413073
2883,8*,1,62,31,12,41,21,52,Abstract_Concrete_6tasks_simseq_2seq_listtask_switchAB_fMRI,497627,54321,23514,2,8,48,B2,glasses,3,8*,4737.8645516,4834.8776169,97.0130653000006,0,0
2790,2@,1,62,32,11,42,22,51,Abstract_Concrete_6tasks_simseq_2seq_listtask_switchAB_fMRI,497627,54321,23514,2,9,49,A2,weapon,5,2@,4737.8645516,4844.8760612,107.0115096,0,0
2388,7&,1,61,32,11,41,21,51,Abstract_Concrete_6tasks_simseq_2seq_listtask_switchAB_fMRI,497627,54321,23514,2,10,50,B3,tools,6,7&,4737.8645516,4854.8758527,117.0113011,0,0
1561,7&,1,61,31,12,41,21,52,Abstract_Concrete_6tasks_simseq_2seq_listtask_switchAB_fMRI,497627,54321,23514,2,11,51,A1,tools,6,7&,4737.8645516,4864.8785136,127.013962,0,0
1505,3#,1,61,31,12,41,21,52,Abstract_Concrete_6tasks_simseq_2seq_listtask_switchAB_fMRI,497627,54321,23514,2,12,52,B1,vest,2,3#,4737.8645516,4873.8768025,136.0122509,0,0
7170,2@,1,62,32,11,41,22,51,Abstract_Concrete_6tasks_simseq_2seq_listtask_switchAB_fMRI,497627,54321,23514,2,13,53,A2,weapon,5,2@,4737.8645516,4882.8770531,145.0125015,0,0
6294,9(,1,61,31,12,42,22,51,Abstract_Concrete_6tasks_simseq_2seq_listtask_switchAB_fMRI,497627,54321,23514,2,14,54,B4,helmet,1,9(,4737.8645516,4897.8774468,160.0128952,0,0
0,,0,62,32,11,42,22,52,Abstract_Concrete_6tasks_simseq_2seq_listtask_switchAB_fMRI,497627,54321,23514,2,15,55,A5,helmet,1,9(,4737.8645516,4911.8768019,174.0122503,4920.8961511,183.0315995
3905,8*,1,62,31,12,42,22,52,Abstract_Concrete_6tasks_simseq_2seq_listtask_switchAB_fMRI,497627,54321,23514,2,16,56,B2,glasses,3,8*,4737.8645516,4928.8759773,191.0114257,0,0
4268,7&,0,61,32,12,42,22,52,Abstract_Concrete_6tasks_simseq_2seq_listtask_switchAB_fMRI,497627,54321,23514,2,17,57,A3,glasses,3,8*,4737.8645516,4939.8756508,202.0110992,4944.1571532,206.2926016
3739,8*,1,61,32,11,42,21,52,Abstract_Concrete_6tasks_simseq_2seq_listtask_switchAB_fMRI,497627,54321,23514,2,18,58,B2,glasses,3,8*,4737.8645516,4951.874325,214.0097734,0,0
6931,3#,1,62,31,11,42,21,51,Abstract_Concrete_6tasks_simseq_2seq_listtask_switchAB_fMRI,497627,54321,23514,2,19,59,A4,vest,2,3#,4737.8645516,4962.8770568,225.0125052,0,0
1147,3#,1,61,32,12,41,21,51,Abstract_Concrete_6tasks_simseq_2seq_listtask_switchAB_fMRI,497627,54321,23514,2,20,60,B1,vest,2,3#,4737.8645516,4976.8768405,239.0122889,0,0
4893,3#,1,62,31,11,41,21,51,Abstract_Concrete_6tasks_simseq_2seq_listtask_switchAB_fMRI,497627,54321,23514,2,21,61,A4,vest,2,3#,4737.8645516,4985.873947,248.0093954,0,0
2725,3#,1,62,32,12,41,21,52,Abstract_Concrete_6tasks_simseq_2seq_listtask_switchAB_fMRI,497627,54321,23514,2,22,62,B1,vest,2,3#,4737.8645516,4997.8769086,260.012357000001,0,0
3708,2@,1,61,32,11,42,21,51,Abstract_Concrete_6tasks_simseq_2seq_listtask_switchAB_fMRI,497627,54321,23514,2,23,63,A2,weapon,5,2@,4737.8645516,5007.8750729,270.010521300001,0,0
5212,9(,1,62,32,11,41,22,52,Abstract_Concrete_6tasks_simseq_2seq_listtask_switchAB_fMRI,497627,54321,23514,2,24,64,B4,helmet,1,9(,4737.8645516,5018.8749095,281.010357900001,0,0
1697,7&,1,61,32,12,42,22,52,Abstract_Concrete_6tasks_simseq_2seq_listtask_switchAB_fMRI,497627,54321,23514,2,25,65,A1,tools,6,7&,4737.8645516,5031.8765742,294.0120226,0,0
3755,9(,1,62,31,11,41,21,52,Abstract_Concrete_6tasks_simseq_2seq_listtask_switchAB_fMRI,497627,54321,23514,2,26,66,B4,helmet,1,9(,4737.8645516,5040.875625,303.0110734,0,0
3575,8*,1,62,31,12,42,21,51,Abstract_Concrete_6tasks_simseq_2seq_listtask_switchAB_fMRI,497627,54321,23514,2,27,67,A3,glasses,3,8*,4737.8645516,5051.8756034,314.0110518,0,0
1780,3#,1,62,31,12,41,21,51,Abstract_Concrete_6tasks_simseq_2seq_listtask_switchAB_fMRI,497627,54321,23514,2,28,68,B1,vest,2,3#,4737.8645516,5062.8759368,325.0113852,0,0
1675,7&,1,62,31,11,41,22,52,Abstract_Concrete_6tasks_simseq_2seq_listtask_switchAB_fMRI,497627,54321,23514,2,29,69,A1,tools,6,7&,4737.8645516,5071.8751932,334.0106416,0,0
2388,2@,1,62,32,12,42,21,51,Abstract_Concrete_6tasks_simseq_2seq_listtask_switchAB_fMRI,497627,54321,23514,2,30,70,B5,weapon,5,2@,4737.8645516,5080.8757857,343.0112341,0,0
4412,3#,1,62,32,12,41,21,51,Abstract_Concrete_6tasks_simseq_2seq_listtask_switchAB_fMRI,497627,54321,23514,2,31,71,A4,vest,2,3#,4737.8645516,5090.8769157,353.0123641,0,0
5364,9(,1,61,32,12,42,22,52,Abstract_Concrete_6tasks_simseq_2seq_listtask_switchAB_fMRI,497627,54321,23514,2,32,72,B4,helmet,1,9(,4737.8645516,5102.8754645,365.0109129,0,0
3464,2@,1,62,32,11,42,21,52,Abstract_Concrete_6tasks_simseq_2seq_listtask_switchAB_fMRI,497627,54321,23514,2,33,73,A2,weapon,5,2@,4737.8645516,5115.8768415,378.012289900001,0,0
5328,2@,1,62,32,11,42,22,51,Abstract_Concrete_6tasks_simseq_2seq_listtask_switchAB_fMRI,497627,54321,23514,2,34,74,B5,weapon,5,2@,4737.8645516,5126.8759989,389.0114473,0,0
3246,8*,1,61,31,12,42,21,52,Abstract_Concrete_6tasks_simseq_2seq_listtask_switchAB_fMRI,497627,54321,23514,2,35,75,A3,glasses,3,8*,4737.8645516,5139.8760231,402.0114715,0,0
3907,7&,1,62,31,12,41,21,52,Abstract_Concrete_6tasks_simseq_2seq_listtask_switchAB_fMRI,497627,54321,23514,2,36,76,B3,tools,6,7&,4737.8645516,5150.8776694,413.0131178,0,0
2188,8*,1,62,31,11,41,21,51,Abstract_Concrete_6tasks_simseq_2seq_listtask_switchAB_fMRI,497627,54321,23514,2,37,77,A3,glasses,3,8*,4737.8645516,5161.8748183,424.0102667,0,0
3038,7&,1,62,31,11,41,21,51,Abstract_Concrete_6tasks_simseq_2seq_listtask_switchAB_fMRI,497627,54321,23514,2,38,78,B3,tools,6,7&,4737.8645516,5171.8779077,434.0133561,0,0
2905,9(,1,61,32,12,41,21,51,Abstract_Concrete_6tasks_simseq_2seq_listtask_switchAB_fMRI,497627,54321,23514,2,39,79,A5,helmet,1,9(,4737.8645516,5182.8776668,445.0131152,0,0
2103,8*,1,61,32,12,42,22,52,Abstract_Concrete_6tasks_simseq_2seq_listtask_switchAB_fMRI,497627,54321,23514,2,40,80,B2,glasses,3,8*,4737.8645516,5192.8764149,455.0118633,0,0
2244,2@,1,61,31,12,42,22,51,Abstract_Concrete_6tasks_simseq_2seq_listtask_switchAB_fMRI,497627,54321,23514,3,1,81,B5,weapon,5,2@,5250.5628009,5258.5731761,8.01037519999954,0,0
2686,7&,1,61,31,11,41,21,52,Abstract_Concrete_6tasks_simseq_2seq_listtask_switchAB_fMRI,497627,54321,23514,3,2,82,A1,tools,6,7&,5250.5628009,5268.5734843,18.0106833999998,0,0
2933,9(,1,62,31,11,42,21,51,Abstract_Concrete_6tasks_simseq_2seq_listtask_switchAB_fMRI,497627,54321,23514,3,3,83,B4,helmet,1,9(,5250.5628009,5278.5769648,28.0141638999994,0,0
2183,2@,1,61,32,11,42,21,52,Abstract_Concrete_6tasks_simseq_2seq_listtask_switchAB_fMRI,497627,54321,23514,3,4,84,A2,weapon,5,2@,5250.5628009,5288.57439,38.0115890999996,0,0
2859,2@,1,62,32,11,42,22,51,Abstract_Concrete_6tasks_simseq_2seq_listtask_switchAB_fMRI,497627,54321,23514,3,5,85,B5,weapon,5,2@,5250.5628009,5298.5751603,48.0123593999997,0,0
1494,7&,1,61,32,11,42,22,51,Abstract_Concrete_6tasks_simseq_2seq_listtask_switchAB_fMRI,497627,54321,23514,3,6,86,A1,tools,6,7&,5250.5628009,5308.5748506,58.0120496999998,0,0
5822,9(,1,62,31,12,42,22,51,Abstract_Concrete_6tasks_simseq_2seq_listtask_switchAB_fMRI,497627,54321,23514,3,7,87,B4,helmet,1,9(,5250.5628009,5317.5746273,67.0118264000002,0,0
1629,7&,1,61,31,11,41,21,52,Abstract_Concrete_6tasks_simseq_2seq_listtask_switchAB_fMRI,497627,54321,23514,3,8,88,A1,tools,6,7&,5250.5628009,5330.5735657,80.0107647999994,0,0
4118,8*,1,62,31,12,42,21,51,Abstract_Concrete_6tasks_simseq_2seq_listtask_switchAB_fMRI,497627,54321,23514,3,9,89,B2,glasses,3,8*,5250.5628009,5339.5760269,89.013226,0,0
3576,9(,1,62,31,11,42,22,52,Abstract_Concrete_6tasks_simseq_2seq_listtask_switchAB_fMRI,497627,54321,23514,3,10,90,A5,helmet,1,9(,5250.5628009,5351.574685,101.011884099999,0,0
3293,7&,1,61,32,12,41,22,52,Abstract_Concrete_6tasks_simseq_2seq_listtask_switchAB_fMRI,497627,54321,23514,3,11,91,B3,tools,6,7&,5250.5628009,5362.5742239,112.011423,0,0
2117,9(,1,61,32,11,41,21,51,Abstract_Concrete_6tasks_simseq_2seq_listtask_switchAB_fMRI,497627,54321,23514,3,12,92,A5,helmet,1,9(,5250.5628009,5373.5741023,123.0113014,0,0
1406,2@,0,62,32,12,42,22,51,Abstract_Concrete_6tasks_simseq_2seq_listtask_switchAB_fMRI,497627,54321,23514,3,13,93,B1,vest,2,3#,5250.5628009,5383.5749937,133.0121928,5384.9964106,134.4336097
3388,9(,1,61,31,12,42,21,51,Abstract_Concrete_6tasks_simseq_2seq_listtask_switchAB_fMRI,497627,54321,23514,3,14,94,A5,helmet,1,9(,5250.5628009,5392.5738634,142.0110625,0,0
1792,2@,0,62,31,11,41,21,52,Abstract_Concrete_6tasks_simseq_2seq_listtask_switchAB_fMRI,497627,54321,23514,3,15,95,B1,vest,2,3#,5250.5628009,5403.5743859,153.011585,5405.3805069,154.817706
3737,3#,1,62,32,12,41,21,52,Abstract_Concrete_6tasks_simseq_2seq_listtask_switchAB_fMRI,497627,54321,23514,3,16,96,A4,vest,2,3#,5250.5628009,5412.5727952,162.0099943,0,0
3453,8*,1,62,32,12,42,21,52,Abstract_Concrete_6tasks_simseq_2seq_listtask_switchAB_fMRI,497627,54321,23514,3,17,97,B2,glasses,3,8*,5250.5628009,5423.5733923,173.0105914,0,0
4177,2@,1,62,31,11,41,22,51,Abstract_Concrete_6tasks_simseq_2seq_listtask_switchAB_fMRI,497627,54321,23514,3,18,98,A2,weapon,5,2@,5250.5628009,5434.5758779,184.013077,0,0
1051,3#,1,61,31,11,42,22,51,Abstract_Concrete_6tasks_simseq_2seq_listtask_switchAB_fMRI,497627,54321,23514,3,19,99,B1,vest,2,3#,5250.5628009,5446.5737189,196.010918,0,0
3569,3#,1,62,32,12,41,22,51,Abstract_Concrete_6tasks_simseq_2seq_listtask_switchAB_fMRI,497627,54321,23514,3,20,100,A4,vest,2,3#,5250.5628009,5455.5745509,205.01175,0,0
3155,8*,1,61,31,12,41,22,52,Abstract_Concrete_6tasks_simseq_2seq_listtask_switchAB_fMRI,497627,54321,23514,3,21,101,B2,glasses,3,8*,5250.5628009,5466.578336,216.015535099999,0,0
4797,3#,1,62,32,12,42,21,51,Abstract_Concrete_6tasks_simseq_2seq_listtask_switchAB_fMRI,497627,54321,23514,3,22,102,A4,vest,2,3#,5250.5628009,5477.5753998,227.0125989,0,0
5575,2@,1,61,32,11,41,22,52,Abstract_Concrete_6tasks_simseq_2seq_listtask_switchAB_fMRI,497627,54321,23514,3,23,103,B5,weapon,5,2@,5250.5628009,5489.5732222,239.0104213,0,0
2284,8*,1,61,31,11,42,21,51,Abstract_Concrete_6tasks_simseq_2seq_listtask_switchAB_fMRI,497627,54321,23514,3,24,104,A3,glasses,3,8*,5250.5628009,5502.5744786,252.011677699999,0,0
3723,7&,1,61,31,11,42,21,51,Abstract_Concrete_6tasks_simseq_2seq_listtask_switchAB_fMRI,497627,54321,23514,3,25,105,B3,tools,6,7&,5250.5628009,5512.5762305,262.0134296,0,0
2070,7&,1,62,32,11,41,22,52,Abstract_Concrete_6tasks_simseq_2seq_listtask_switchAB_fMRI,497627,54321,23514,3,26,106,A1,tools,6,7&,5250.5628009,5523.5738683,273.0110674,0,0
2707,7&,1,62,32,11,41,22,52,Abstract_Concrete_6tasks_simseq_2seq_listtask_switchAB_fMRI,497627,54321,23514,3,27,107,B3,tools,6,7&,5250.5628009,5533.5746219,283.011821,0,0
5742,8*,1,61,31,11,42,21,52,Abstract_Concrete_6tasks_simseq_2seq_listtask_switchAB_fMRI,497627,54321,23514,3,28,108,A3,glasses,3,8*,5250.5628009,5543.581766,293.0189651,0,0
6447,9(,1,61,32,12,41,21,52,Abstract_Concrete_6tasks_simseq_2seq_listtask_switchAB_fMRI,497627,54321,23514,3,29,109,B4,helmet,1,9(,5250.5628009,5556.5732318,306.0104309,0,0
1888,9(,1,62,31,12,41,22,52,Abstract_Concrete_6tasks_simseq_2seq_listtask_switchAB_fMRI,497627,54321,23514,3,30,110,A5,helmet,1,9(,5250.5628009,5570.5734008,320.0105999,0,0
5603,8*,1,61,31,12,41,22,52,Abstract_Concrete_6tasks_simseq_2seq_listtask_switchAB_fMRI,497627,54321,23514,3,31,111,B2,glasses,3,8*,5250.5628009,5579.5742593,329.0114584,0,0
5279,2@,1,61,31,12,41,22,51,Abstract_Concrete_6tasks_simseq_2seq_listtask_switchAB_fMRI,497627,54321,23514,3,32,112,A2,weapon,5,2@,5250.5628009,5592.5742143,342.0114134,0,0
2564,7&,1,61,31,12,41,21,52,Abstract_Concrete_6tasks_simseq_2seq_listtask_switchAB_fMRI,497627,54321,23514,3,33,113,B3,tools,6,7&,5250.5628009,5605.5733199,355.010518999999,0,0
5349,8*,1,62,32,11,42,21,52,Abstract_Concrete_6tasks_simseq_2seq_listtask_switchAB_fMRI,497627,54321,23514,3,34,114,A3,glasses,3,8*,5250.5628009,5615.5734607,365.0106598,0,0
3293,2@,1,61,31,12,41,21,51,Abstract_Concrete_6tasks_simseq_2seq_listtask_switchAB_fMRI,497627,54321,23514,3,35,115,B5,weapon,5,2@,5250.5628009,5628.5753326,378.0125317,0,0
2539,2@,1,61,31,12,42,21,52,Abstract_Concrete_6tasks_simseq_2seq_listtask_switchAB_fMRI,497627,54321,23514,3,36,116,A2,weapon,5,2@,5250.5628009,5639.5741646,389.011363699999,0,0
2243,3#,1,61,32,11,42,22,51,Abstract_Concrete_6tasks_simseq_2seq_listtask_switchAB_fMRI,497627,54321,23514,3,37,117,B1,vest,2,3#,5250.5628009,5649.5759271,399.0131262,0,0
3799,3#,1,62,31,12,42,22,51,Abstract_Concrete_6tasks_simseq_2seq_listtask_switchAB_fMRI,497627,54321,23514,3,38,118,A4,vest,2,3#,5250.5628009,5659.575553,409.012752099999,0,0
3474,9(,1,62,31,12,41,22,51,Abstract_Concrete_6tasks_simseq_2seq_listtask_switchAB_fMRI,497627,54321,23514,3,39,119,B4,helmet,1,9(,5250.5628009,5670.5737491,420.0109482,0,0
3348,8*,1,62,31,11,41,22,52,Abstract_Concrete_6tasks_simseq_2seq_listtask_switchAB_fMRI,497627,54321,23514,3,40,120,A3,glasses,3,8*,5250.5628009,5681.5739456,431.0111447,0,0
2447,2@,1,62,32,11,42,21,52,Abstract_Concrete_6tasks_simseq_2seq_listtask_switchAB_fMRI,497627,54321,23514,4,1,121,A2,weapon,5,2@,5798.0254944,5806.0354855,8.00999109999975,0,0
2059,8*,1,62,31,11,41,21,52,Abstract_Concrete_6tasks_simseq_2seq_listtask_switchAB_fMRI,497627,54321,23514,4,2,122,B2,glasses,3,8*,5798.0254944,5816.0357327,18.0102383000003,0,0
1495,7&,1,62,32,11,41,22,52,Abstract_Concrete_6tasks_simseq_2seq_listtask_switchAB_fMRI,497627,54321,23514,4,3,123,A1,tools,6,7&,5798.0254944,5826.0396537,28.0141592999998,0,0
2252,8*,1,61,31,11,42,21,52,Abstract_Concrete_6tasks_simseq_2seq_listtask_switchAB_fMRI,497627,54321,23514,4,4,124,B2,glasses,3,8*,5798.0254944,5835.0360971,37.0106027000002,0,0
2187,2@,1,61,31,11,41,22,52,Abstract_Concrete_6tasks_simseq_2seq_listtask_switchAB_fMRI,497627,54321,23514,4,5,125,A2,weapon,5,2@,5798.0254944,5845.0369793,47.0114849000001,0,0
2832,7&,1,61,32,11,41,22,52,Abstract_Concrete_6tasks_simseq_2seq_listtask_switchAB_fMRI,497627,54321,23514,4,6,126,B3,tools,6,7&,5798.0254944,5855.0372944,57.0118000000002,0,0
1959,7&,1,61,32,12,42,22,52,Abstract_Concrete_6tasks_simseq_2seq_listtask_switchAB_fMRI,497627,54321,23514,4,7,127,A1,tools,6,7&,5798.0254944,5865.0344311,67.0089367,0,0
3102,7&,1,61,32,11,41,21,52,Abstract_Concrete_6tasks_simseq_2seq_listtask_switchAB_fMRI,497627,54321,23514,4,8,128,B3,tools,6,7&,5798.0254944,5874.0379733,76.0124789000001,0,0
5670,9(,1,62,31,11,42,22,51,Abstract_Concrete_6tasks_simseq_2seq_listtask_switchAB_fMRI,497627,54321,23514,4,9,129,A5,helmet,1,9(,5798.0254944,5885.0368823,87.0113879,0,0
3878,2@,1,61,31,12,42,22,51,Abstract_Concrete_6tasks_simseq_2seq_listtask_switchAB_fMRI,497627,54321,23514,4,10,130,B5,weapon,5,2@,5798.0254944,5898.0369309,100.0114365,0,0
1876,2@,1,61,31,11,41,22,52,Abstract_Concrete_6tasks_simseq_2seq_listtask_switchAB_fMRI,497627,54321,23514,4,11,131,A2,weapon,5,2@,5798.0254944,5909.036624,111.0111296,0,0
2548,9(,1,62,31,11,42,21,51,Abstract_Concrete_6tasks_simseq_2seq_listtask_switchAB_fMRI,497627,54321,23514,4,12,132,B4,helmet,1,9(,5798.0254944,5918.0367735,120.0112791,0,0
1894,9(,1,61,31,11,42,21,51,Abstract_Concrete_6tasks_simseq_2seq_listtask_switchAB_fMRI,497627,54321,23514,4,13,133,A5,helmet,1,9(,5798.0254944,5928.0364231,130.0109287,0,0
2996,9(,1,61,31,12,42,21,52,Abstract_Concrete_6tasks_simseq_2seq_listtask_switchAB_fMRI,497627,54321,23514,4,14,134,B4,helmet,1,9(,5798.0254944,5937.036603,139.0111086,0,0
2799,7&,1,62,32,12,42,22,52,Abstract_Concrete_6tasks_simseq_2seq_listtask_switchAB_fMRI,497627,54321,23514,4,15,135,A1,tools,6,7&,5798.0254944,5948.0379288,150.012434400001,0,0
4803,8*,1,61,32,11,42,21,52,Abstract_Concrete_6tasks_simseq_2seq_listtask_switchAB_fMRI,497627,54321,23514,4,16,136,B2,glasses,3,8*,5798.0254944,5958.0372762,160.0117818,0,0
6993,3#,1,62,32,11,41,22,51,Abstract_Concrete_6tasks_simseq_2seq_listtask_switchAB_fMRI,497627,54321,23514,4,17,137,A4,vest,2,3#,5798.0254944,5970.0373601,172.0118657,0,0
5101,9(,1,61,31,12,42,21,51,Abstract_Concrete_6tasks_simseq_2seq_listtask_switchAB_fMRI,497627,54321,23514,4,18,138,B4,helmet,1,9(,5798.0254944,5985.0384051,187.0129107,0,0
2416,9(,1,61,31,11,41,21,51,Abstract_Concrete_6tasks_simseq_2seq_listtask_switchAB_fMRI,497627,54321,23514,4,19,139,A5,helmet,1,9(,5798.0254944,5998.0369512,200.0114568,0,0
2318,8*,1,62,32,12,42,21,52,Abstract_Concrete_6tasks_simseq_2seq_listtask_switchAB_fMRI,497627,54321,23514,4,20,140,B2,glasses,3,8*,5798.0254944,6008.0386744,210.01318,0,0
8890,3#,1,61,31,11,42,22,52,Abstract_Concrete_6tasks_simseq_2seq_listtask_switchAB_fMRI,497627,54321,23514,4,21,141,A4,vest,2,3#,5798.0254944,6018.0376854,220.012191,0,0
7209,7&,1,62,31,12,41,22,51,Abstract_Concrete_6tasks_simseq_2seq_listtask_switchAB_fMRI,497627,54321,23514,4,22,142,B3,tools,6,7&,5798.0254944,6034.0364264,236.010932,0,0
2791,8*,1,62,31,11,42,21,52,Abstract_Concrete_6tasks_simseq_2seq_listtask_switchAB_fMRI,497627,54321,23514,4,23,143,A3,glasses,3,8*,5798.0254944,6049.0364555,251.0109611,0,0
6459,9(,1,62,32,12,41,22,52,Abstract_Concrete_6tasks_simseq_2seq_listtask_switchAB_fMRI,497627,54321,23514,4,24,144,B4,helmet,1,9(,5798.0254944,6059.03657,261.0110756,0,0
8772,9(,0,61,31,11,41,21,51,Abstract_Concrete_6tasks_simseq_2seq_listtask_switchAB_fMRI,497627,54321,23514,4,25,145,A4,vest,2,3#,5798.0254944,6073.0369529,275.0114585,6081.8297247,283.8042303
3573,2@,1,61,31,12,41,22,51,Abstract_Concrete_6tasks_simseq_2seq_listtask_switchAB_fMRI,497627,54321,23514,4,26,146,B5,weapon,5,2@,5798.0254944,6089.0357785,291.0102841,0,0
2067,9(,1,62,32,11,41,21,52,Abstract_Concrete_6tasks_simseq_2seq_listtask_switchAB_fMRI,497627,54321,23514,4,27,147,A5,helmet,1,9(,5798.0254944,6100.0385875,302.0130931,0,0
2491,2@,1,62,32,11,41,21,51,Abstract_Concrete_6tasks_simseq_2seq_listtask_switchAB_fMRI,497627,54321,23514,4,28,148,B5,weapon,5,2@,5798.0254944,6110.0371086,312.0116142,0,0
3036,7&,0,62,32,11,42,22,52,Abstract_Concrete_6tasks_simseq_2seq_listtask_switchAB_fMRI,497627,54321,23514,4,29,149,A3,glasses,3,8*,5798.0254944,6120.0369422,322.0114478,6123.084675,325.0591806
2144,2@,1,61,31,12,42,22,52,Abstract_Concrete_6tasks_simseq_2seq_listtask_switchAB_fMRI,497627,54321,23514,4,30,150,B5,weapon,5,2@,5798.0254944,6131.0363692,333.0108748,0,0
2161,3#,1,62,32,12,42,22,52,Abstract_Concrete_6tasks_simseq_2seq_listtask_switchAB_fMRI,497627,54321,23514,4,31,151,A4,vest,2,3#,5798.0254944,6141.0376439,343.0121495,0,0
2970,3#,1,62,32,11,41,21,51,Abstract_Concrete_6tasks_simseq_2seq_listtask_switchAB_fMRI,497627,54321,23514,4,32,152,B1,vest,2,3#,5798.0254944,6151.0369253,353.0114309,0,0
2395,2@,1,61,32,12,41,22,52,Abstract_Concrete_6tasks_simseq_2seq_listtask_switchAB_fMRI,497627,54321,23514,4,33,153,A2,weapon,5,2@,5798.0254944,6161.0377686,363.0122742,0,0
2232,3#,1,61,32,11,42,21,51,Abstract_Concrete_6tasks_simseq_2seq_listtask_switchAB_fMRI,497627,54321,23514,4,34,154,B1,vest,2,3#,5798.0254944,6171.0362212,373.0107268,0,0
3694,8*,1,61,32,11,42,22,51,Abstract_Concrete_6tasks_simseq_2seq_listtask_switchAB_fMRI,497627,54321,23514,4,35,155,A3,glasses,3,8*,5798.0254944,6181.0372284,383.011734,0,0
990,3#,1,62,32,12,41,21,52,Abstract_Concrete_6tasks_simseq_2seq_listtask_switchAB_fMRI,497627,54321,23514,4,36,156,B1,vest,2,3#,5798.0254944,6192.037219,394.0117246,0,0
2850,7&,1,62,31,12,42,22,52,Abstract_Concrete_6tasks_simseq_2seq_listtask_switchAB_fMRI,497627,54321,23514,4,37,157,A1,tools,6,7&,5798.0254944,6201.0383218,403.0128274,0,0
6378,7&,1,62,32,11,41,21,51,Abstract_Concrete_6tasks_simseq_2seq_listtask_switchAB_fMRI,497627,54321,23514,4,38,158,B3,tools,6,7&,5798.0254944,6211.0363945,413.0109001,0,0
2334,8*,1,62,31,11,41,21,52,Abstract_Concrete_6tasks_simseq_2seq_listtask_switchAB_fMRI,497627,54321,23514,4,39,159,A3,glasses,3,8*,5798.0254944,6225.0375055,427.012011100001,0,0
937,3#,1,62,31,12,42,22,51,Abstract_Concrete_6tasks_simseq_2seq_listtask_switchAB_fMRI,497627,54321,23514,4,40,160,B1,vest,2,3#,5798.0254944,6235.0370974,437.011603,0,0
2945,9(,0,62,31,11,42,21,52,Abstract_Concrete_6tasks_simseq_2seq_listtask_switchAB_fMRI,497627,54321,23514,5,1,161,A4,vest,2,3#,6289.0255624,6297.0366841,8.01112169999942,6300.0033609,10.9777985000001
2995,7&,1,61,32,12,41,22,52,Abstract_Concrete_6tasks_simseq_2seq_listtask_switchAB_fMRI,497627,54321,23514,5,2,162,B3,tools,6,7&,6289.0255624,6307.0357289,18.0101665000002,0,0
3988,8*,1,62,32,11,42,21,52,Abstract_Concrete_6tasks_simseq_2seq_listtask_switchAB_fMRI,497627,54321,23514,5,3,163,A3,glasses,3,8*,6289.0255624,6318.0381466,29.0125841999998,0,0
1318,3#,1,62,32,12,41,21,51,Abstract_Concrete_6tasks_simseq_2seq_listtask_switchAB_fMRI,497627,54321,23514,5,4,164,B1,vest,2,3#,6289.0255624,6330.0400104,41.0144479999999,0,0
3118,9(,1,61,31,11,41,22,52,Abstract_Concrete_6tasks_simseq_2seq_listtask_switchAB_fMRI,497627,54321,23514,5,5,165,A5,helmet,1,9(,6289.0255624,6339.0381745,50.0126121000003,0,0
1896,8*,1,62,32,11,41,21,52,Abstract_Concrete_6tasks_simseq_2seq_listtask_switchAB_fMRI,497627,54321,23514,5,6,166,B2,glasses,3,8*,6289.0255624,6350.0379179,61.0123555,0,0
3140,8*,1,62,31,12,42,22,51,Abstract_Concrete_6tasks_simseq_2seq_listtask_switchAB_fMRI,497627,54321,23514,5,7,167,A3,glasses,3,8*,6289.0255624,6359.0390149,70.0134525000003,0,0
2981,7&,1,62,32,12,41,21,52,Abstract_Concrete_6tasks_simseq_2seq_listtask_switchAB_fMRI,497627,54321,23514,5,8,168,B3,tools,6,7&,6289.0255624,6370.0376505,81.0120881000003,0,0
2538,2@,1,61,32,12,41,22,51,Abstract_Concrete_6tasks_simseq_2seq_listtask_switchAB_fMRI,497627,54321,23514,5,9,169,A2,weapon,5,2@,6289.0255624,6380.0379079,91.0123455000003,0,0
1075,3#,1,62,31,12,42,22,51,Abstract_Concrete_6tasks_simseq_2seq_listtask_switchAB_fMRI,497627,54321,23514,5,10,170,B1,vest,2,3#,6289.0255624,6390.0376569,101.0120945,0,0
6353,8*,1,62,32,12,41,22,52,Abstract_Concrete_6tasks_simseq_2seq_listtask_switchAB_fMRI,497627,54321,23514,5,11,171,A3,glasses,3,8*,6289.0255624,6399.0382489,110.0126865,0,0
4531,2@,1,62,31,12,41,22,51,Abstract_Concrete_6tasks_simseq_2seq_listtask_switchAB_fMRI,497627,54321,23514,5,12,172,B5,weapon,5,2@,6289.0255624,6413.03894,124.0133776,0,0
3156,7&,1,62,32,11,42,22,52,Abstract_Concrete_6tasks_simseq_2seq_listtask_switchAB_fMRI,497627,54321,23514,5,13,173,A1,tools,6,7&,6289.0255624,6425.0376151,136.0120527,0,0
2251,2@,1,62,31,11,41,22,52,Abstract_Concrete_6tasks_simseq_2seq_listtask_switchAB_fMRI,497627,54321,23514,5,14,174,B5,weapon,5,2@,6289.0255624,6436.0363631,147.0108007,0,0
1698,2@,1,61,31,11,41,22,51,Abstract_Concrete_6tasks_simseq_2seq_listtask_switchAB_fMRI,497627,54321,23514,5,15,175,A2,weapon,5,2@,6289.0255624,6446.0379913,157.0124289,0,0
1650,8*,1,62,32,12,41,22,52,Abstract_Concrete_6tasks_simseq_2seq_listtask_switchAB_fMRI,497627,54321,23514,5,16,176,B2,glasses,3,8*,6289.0255624,6455.0367441,166.0111817,0,0
2782,3#,1,61,32,11,42,22,52,Abstract_Concrete_6tasks_simseq_2seq_listtask_switchAB_fMRI,497627,54321,23514,5,17,177,A4,vest,2,3#,6289.0255624,6464.0375514,175.011989,0,0
5922,9(,1,62,31,11,41,21,52,Abstract_Concrete_6tasks_simseq_2seq_listtask_switchAB_fMRI,497627,54321,23514,5,18,178,B4,helmet,1,9(,6289.0255624,6474.0387306,185.0131682,0,0
2142,2@,1,62,31,12,42,21,52,Abstract_Concrete_6tasks_simseq_2seq_listtask_switchAB_fMRI,497627,54321,23514,5,19,179,A2,weapon,5,2@,6289.0255624,6487.037195,198.0116326,0,0
1109,3#,1,61,31,11,41,22,52,Abstract_Concrete_6tasks_simseq_2seq_listtask_switchAB_fMRI,497627,54321,23514,5,20,180,B1,vest,2,3#,6289.0255624,6497.0359639,208.0104015,0,0
3093,9(,1,62,32,11,42,21,52,Abstract_Concrete_6tasks_simseq_2seq_listtask_switchAB_fMRI,497627,54321,23514,5,21,181,A5,helmet,1,9(,6289.0255624,6506.0368971,217.0113347,0,0
3778,2@,1,61,31,12,41,22,51,Abstract_Concrete_6tasks_simseq_2seq_listtask_switchAB_fMRI,497627,54321,23514,5,22,182,B5,weapon,5,2@,6289.0255624,6517.0396384,228.014075999999,0,0
3156,3#,1,61,31,12,41,21,51,Abstract_Concrete_6tasks_simseq_2seq_listtask_switchAB_fMRI,497627,54321,23514,5,23,183,A4,vest,2,3#,6289.0255624,6528.0382681,239.0127057,0,0
4603,7&,1,62,32,11,41,22,51,Abstract_Concrete_6tasks_simseq_2seq_listtask_switchAB_fMRI,497627,54321,23514,5,24,184,B3,tools,6,7&,6289.0255624,6539.0361425,250.0105801,0,0
1720,7&,1,62,32,11,41,21,51,Abstract_Concrete_6tasks_simseq_2seq_listtask_switchAB_fMRI,497627,54321,23514,5,25,185,A1,tools,6,7&,6289.0255624,6551.0369243,262.011361899999,0,0
1849,2@,1,62,32,12,42,21,51,Abstract_Concrete_6tasks_simseq_2seq_listtask_switchAB_fMRI,497627,54321,23514,5,26,186,B5,weapon,5,2@,6289.0255624,6560.0365368,271.0109744,0,0
1926,8*,1,62,31,12,41,22,52,Abstract_Concrete_6tasks_simseq_2seq_listtask_switchAB_fMRI,497627,54321,23514,5,27,187,A3,glasses,3,8*,6289.0255624,6569.0363445,280.0107821,0,0
2028,7&,1,62,32,12,41,22,52,Abstract_Concrete_6tasks_simseq_2seq_listtask_switchAB_fMRI,497627,54321,23514,5,28,188,B3,tools,6,7&,6289.0255624,6578.0363712,289.0108088,0,0
1647,7&,1,62,32,12,42,22,51,Abstract_Concrete_6tasks_simseq_2seq_listtask_switchAB_fMRI,497627,54321,23514,5,29,189,A1,tools,6,7&,6289.0255624,6588.038679,299.0131166,0,0
1344,3#,1,61,31,12,41,21,52,Abstract_Concrete_6tasks_simseq_2seq_listtask_switchAB_fMRI,497627,54321,23514,5,30,190,B1,vest,2,3#,6289.0255624,6597.0369103,308.0113479,0,0
2371,2@,1,61,32,11,42,22,52,Abstract_Concrete_6tasks_simseq_2seq_listtask_switchAB_fMRI,497627,54321,23514,5,31,191,A2,weapon,5,2@,6289.0255624,6606.0372846,317.0117222,0,0
2586,8*,1,61,32,11,41,22,51,Abstract_Concrete_6tasks_simseq_2seq_listtask_switchAB_fMRI,497627,54321,23514,5,32,192,B2,glasses,3,8*,6289.0255624,6616.0368459,327.0112835,0,0
1159,7&,1,61,32,12,42,22,52,Abstract_Concrete_6tasks_simseq_2seq_listtask_switchAB_fMRI,497627,54321,23514,5,33,193,A1,tools,6,7&,6289.0255624,6626.0380402,337.0124778,0,0
7905,9(,1,61,31,11,41,22,51,Abstract_Concrete_6tasks_simseq_2seq_listtask_switchAB_fMRI,497627,54321,23514,5,34,194,B4,helmet,1,9(,6289.0255624,6635.0375724,346.012009999999,0,0
2130,3#,1,61,31,11,41,22,52,Abstract_Concrete_6tasks_simseq_2seq_listtask_switchAB_fMRI,497627,54321,23514,5,35,195,A4,vest,2,3#,6289.0255624,6650.03603,361.0104676,0,0
1844,8*,1,61,31,11,42,22,52,Abstract_Concrete_6tasks_simseq_2seq_listtask_switchAB_fMRI,497627,54321,23514,5,36,196,B2,glasses,3,8*,6289.0255624,6660.0364665,371.0109041,0,0
3017,9(,1,62,32,11,42,22,52,Abstract_Concrete_6tasks_simseq_2seq_listtask_switchAB_fMRI,497627,54321,23514,5,37,197,A5,helmet,1,9(,6289.0255624,6669.0345891,380.0090267,0,0
4699,9(,1,62,32,12,41,22,52,Abstract_Concrete_6tasks_simseq_2seq_listtask_switchAB_fMRI,497627,54321,23514,5,38,198,B4,helmet,1,9(,6289.0255624,6680.0370259,391.0114635,0,0
5723,9(,1,61,32,12,42,21,51,Abstract_Concrete_6tasks_simseq_2seq_listtask_switchAB_fMRI,497627,54321,23514,5,39,199,A5,helmet,1,9(,6289.0255624,6692.038042,403.0124796,0,0
2967,9(,1,61,31,11,41,21,51,Abstract_Concrete_6tasks_simseq_2seq_listtask_switchAB_fMRI,497627,54321,23514,5,40,200,B4,helmet,1,9(,6289.0255624,6705.039003,416.0134406,0,0
2158,8*,1,62,31,12,41,22,52,Abstract_Concrete_6tasks_simseq_2seq_listtask_switchAB_fMRI,497627,54321,23514,6,1,201,B2,glasses,3,8*,6750.660064,6758.669897,8.00983300000007,0,0
2258,2@,1,62,32,12,42,21,51,Abstract_Concrete_6tasks_simseq_2seq_listtask_switchAB_fMRI,497627,54321,23514,6,2,202,A2,weapon,5,2@,6750.660064,6768.6700562,18.0099921999999,0,0
2259,9(,1,61,32,12,41,22,51,Abstract_Concrete_6tasks_simseq_2seq_listtask_switchAB_fMRI,497627,54321,23514,6,3,203,B4,helmet,1,9(,6750.660064,6778.6741427,28.0140787,0,0
4040,3#,1,61,31,12,42,22,51,Abstract_Concrete_6tasks_simseq_2seq_listtask_switchAB_fMRI,497627,54321,23514,6,4,204,A4,vest,2,3#,6750.660064,6788.6730593,38.0129953000005,0,0
3106,7&,1,62,31,12,41,21,52,Abstract_Concrete_6tasks_simseq_2seq_listtask_switchAB_fMRI,497627,54321,23514,6,5,205,B3,tools,6,7&,6750.660064,6800.6743585,50.0142945000007,0,0
3777,9(,1,62,32,11,41,21,51,Abstract_Concrete_6tasks_simseq_2seq_listtask_switchAB_fMRI,497627,54321,23514,6,6,206,A5,helmet,1,9(,6750.660064,6811.6721579,61.0120938999999,0,0
3412,2@,1,62,32,11,41,21,52,Abstract_Concrete_6tasks_simseq_2seq_listtask_switchAB_fMRI,497627,54321,23514,6,7,207,B5,weapon,5,2@,6750.660064,6822.6711521,72.0110881000001,0,0
1703,7&,1,61,31,12,41,21,51,Abstract_Concrete_6tasks_simseq_2seq_listtask_switchAB_fMRI,497627,54321,23514,6,8,208,A1,tools,6,7&,6750.660064,6833.6732619,83.0131979000007,0,0
2149,7&,1,61,31,12,41,21,51,Abstract_Concrete_6tasks_simseq_2seq_listtask_switchAB_fMRI,497627,54321,23514,6,9,209,B3,tools,6,7&,6750.660064,6842.6707021,92.0106381000005,0,0
4314,3#,1,61,31,12,41,22,52,Abstract_Concrete_6tasks_simseq_2seq_listtask_switchAB_fMRI,497627,54321,23514,6,10,210,A4,vest,2,3#,6750.660064,6852.6737603,102.0136963,0,0
2294,8*,1,62,32,11,41,21,51,Abstract_Concrete_6tasks_simseq_2seq_listtask_switchAB_fMRI,497627,54321,23514,6,11,211,B2,glasses,3,8*,6750.660064,6864.6727933,114.012729300001,0,0
2993,3#,1,61,31,12,41,21,52,Abstract_Concrete_6tasks_simseq_2seq_listtask_switchAB_fMRI,497627,54321,23514,6,12,212,A4,vest,2,3#,6750.660064,6874.6732277,124.0131637,0,0
1941,3#,1,62,32,12,42,21,52,Abstract_Concrete_6tasks_simseq_2seq_listtask_switchAB_fMRI,497627,54321,23514,6,13,213,B1,vest,2,3#,6750.660064,6885.6735244,135.0134604,0,0
4391,8*,1,61,31,12,42,22,52,Abstract_Concrete_6tasks_simseq_2seq_listtask_switchAB_fMRI,497627,54321,23514,6,14,214,A3,glasses,3,8*,6750.660064,6894.6715601,144.0114961,0,0
886,3#,1,61,31,11,42,21,52,Abstract_Concrete_6tasks_simseq_2seq_listtask_switchAB_fMRI,497627,54321,23514,6,15,215,B1,vest,2,3#,6750.660064,6906.6735169,156.013452900001,0,0
2061,2@,1,62,31,11,41,21,52,Abstract_Concrete_6tasks_simseq_2seq_listtask_switchAB_fMRI,497627,54321,23514,6,16,216,A2,weapon,5,2@,6750.660064,6914.6713291,164.0112651,0,0
2165,9(,1,62,31,11,41,21,52,Abstract_Concrete_6tasks_simseq_2seq_listtask_switchAB_fMRI,497627,54321,23514,6,17,217,B4,helmet,1,9(,6750.660064,6924.6710513,174.0109873,0,0
2658,7&,1,61,31,12,41,21,52,Abstract_Concrete_6tasks_simseq_2seq_listtask_switchAB_fMRI,497627,54321,23514,6,18,218,A1,tools,6,7&,6750.660064,6934.6745672,184.0145032,0,0
3245,7&,1,62,31,12,42,21,52,Abstract_Concrete_6tasks_simseq_2seq_listtask_switchAB_fMRI,497627,54321,23514,6,19,219,B3,tools,6,7&,6750.660064,6944.669892,194.009828,0,0
3080,8*,1,61,31,11,41,22,52,Abstract_Concrete_6tasks_simseq_2seq_listtask_switchAB_fMRI,497627,54321,23514,6,20,220,A3,glasses,3,8*,6750.660064,6955.671549,205.011485,0,0
3010,9(,1,62,31,12,42,21,52,Abstract_Concrete_6tasks_simseq_2seq_listtask_switchAB_fMRI,497627,54321,23514,6,21,221,B4,helmet,1,9(,6750.660064,6966.6723062,216.0122422,0,0
3138,7&,1,61,31,11,42,21,51,Abstract_Concrete_6tasks_simseq_2seq_listtask_switchAB_fMRI,497627,54321,23514,6,22,222,A1,tools,6,7&,6750.660064,6977.6718562,227.0117922,0,0
1198,3#,1,61,32,12,41,22,51,Abstract_Concrete_6tasks_simseq_2seq_listtask_switchAB_fMRI,497627,54321,23514,6,23,223,B1,vest,2,3#,6750.660064,6988.6718593,238.0117953,0,0
3506,2@,1,61,31,11,42,21,52,Abstract_Concrete_6tasks_simseq_2seq_listtask_switchAB_fMRI,497627,54321,23514,6,24,224,A2,weapon,5,2@,6750.660064,6997.6705243,247.0104603,0,0
1489,8*,1,61,31,11,42,21,52,Abstract_Concrete_6tasks_simseq_2seq_listtask_switchAB_fMRI,497627,54321,23514,6,25,225,B2,glasses,3,8*,6750.660064,7008.671911,258.011847000001,0,0
4866,9(,1,62,31,12,41,22,52,Abstract_Concrete_6tasks_simseq_2seq_listtask_switchAB_fMRI,497627,54321,23514,6,26,226,A5,helmet,1,9(,6750.660064,7017.6712453,267.0111813,0,0
1990,2@,1,62,31,12,42,22,52,Abstract_Concrete_6tasks_simseq_2seq_listtask_switchAB_fMRI,497627,54321,23514,6,27,227,B5,weapon,5,2@,6750.660064,7029.6713406,279.0112766,0,0
1327,9(,1,62,31,12,41,22,51,Abstract_Concrete_6tasks_simseq_2seq_listtask_switchAB_fMRI,497627,54321,23514,6,28,228,A5,helmet,1,9(,6750.660064,7039.672896,289.012832,0,0
1757,8*,1,61,32,11,41,21,51,Abstract_Concrete_6tasks_simseq_2seq_listtask_switchAB_fMRI,497627,54321,23514,6,29,229,B2,glasses,3,8*,6750.660064,7048.6713807,298.0113167,0,0
1965,2@,1,61,31,12,41,21,52,Abstract_Concrete_6tasks_simseq_2seq_listtask_switchAB_fMRI,497627,54321,23514,6,30,230,A2,weapon,5,2@,6750.660064,7057.6731889,307.013124900001,0,0
4032,9(,1,61,32,11,42,22,51,Abstract_Concrete_6tasks_simseq_2seq_listtask_switchAB_fMRI,497627,54321,23514,6,31,231,B4,helmet,1,9(,6750.660064,7066.6719926,316.0119286,0,0
2036,3#,1,61,31,11,41,22,52,Abstract_Concrete_6tasks_simseq_2seq_listtask_switchAB_fMRI,497627,54321,23514,6,32,232,A4,vest,2,3#,6750.660064,7078.6708433,328.010779300001,0,0
1517,2@,1,61,31,11,42,21,52,Abstract_Concrete_6tasks_simseq_2seq_listtask_switchAB_fMRI,497627,54321,23514,6,33,233,B5,weapon,5,2@,6750.660064,7088.6733955,338.0133315,0,0
3413,8*,1,62,31,11,42,21,52,Abstract_Concrete_6tasks_simseq_2seq_listtask_switchAB_fMRI,497627,54321,23514,6,34,234,A3,glasses,3,8*,6750.660064,7097.6744934,347.0144294,0,0
2840,7&,1,62,32,12,42,21,51,Abstract_Concrete_6tasks_simseq_2seq_listtask_switchAB_fMRI,497627,54321,23514,6,35,235,B3,tools,6,7&,6750.660064,7108.6704879,358.0104239,0,0
1711,9(,1,62,32,12,41,22,51,Abstract_Concrete_6tasks_simseq_2seq_listtask_switchAB_fMRI,497627,54321,23514,6,36,236,A5,helmet,1,9(,6750.660064,7118.6705223,368.0104583,0,0
1412,2@,1,61,31,12,42,22,51,Abstract_Concrete_6tasks_simseq_2seq_listtask_switchAB_fMRI,497627,54321,23514,6,37,237,B5,weapon,5,2@,6750.660064,7127.6704962,377.010432200001,0,0
3928,8*,1,62,32,12,41,21,52,Abstract_Concrete_6tasks_simseq_2seq_listtask_switchAB_fMRI,497627,54321,23514,6,38,238,A3,glasses,3,8*,6750.660064,7136.6708814,386.010817400001,0,0
1086,3#,1,61,32,11,42,22,51,Abstract_Concrete_6tasks_simseq_2seq_listtask_switchAB_fMRI,497627,54321,23514,6,39,239,B1,vest,2,3#,6750.660064,7147.6726473,397.0125833,0,0
1241,7&,1,62,31,12,42,21,51,Abstract_Concrete_6tasks_simseq_2seq_listtask_switchAB_fMRI,497627,54321,23514,6,40,240,A1,tools,6,7&,6750.660064,7156.6717067,406.0116427,0,0
