rt1,resp1,correct1,features_1,features_2,features_3,features_4,features_5,features_6,ExpName,subNo,seqA,seqB,block,trial,trialnum,cuetype,task,subtaskcode,corr_resp1,onsetTime_s,onsetTime_cue,onset_cue,onsetTime_cue_fb,onset_cue_fb
3140,8*,1,12,22,62,42,31,51,Abstract_Concrete_6tasks_simseq_2seq_listtask_switchAB_fMRI,509291,51234,32541,1,1,1,B2,vest,2,8*,3840.9877028,3848.998734,8.01103119999971,0,0
2936,9(,1,12,21,62,42,31,51,Abstract_Concrete_6tasks_simseq_2seq_listtask_switchAB_fMRI,509291,51234,32541,1,2,2,A1,tools,6,9(,3840.9877028,3859.999594,19.0118911999998,0,0
3209,9(,1,12,22,62,41,31,51,Abstract_Concrete_6tasks_simseq_2seq_listtask_switchAB_fMRI,509291,51234,32541,1,3,3,B3,tools,6,9(,3840.9877028,3870.0012515,29.0135486999998,0,0
5951,3#,1,12,22,61,42,31,52,Abstract_Concrete_6tasks_simseq_2seq_listtask_switchAB_fMRI,509291,51234,32541,1,4,4,A4,glasses,3,3#,3840.9877028,3880.9992581,40.0115553000001,0,0
1945,8*,1,11,21,62,41,31,52,Abstract_Concrete_6tasks_simseq_2seq_listtask_switchAB_fMRI,509291,51234,32541,1,5,5,B2,vest,2,8*,3840.9877028,3893.9993782,53.0116754000001,0,0
2951,9(,1,12,21,62,41,32,52,Abstract_Concrete_6tasks_simseq_2seq_listtask_switchAB_fMRI,509291,51234,32541,1,6,6,A1,tools,6,9(,3840.9877028,3902.9991725,62.0114696999999,0,0
0,,0,11,21,62,42,31,52,Abstract_Concrete_6tasks_simseq_2seq_listtask_switchAB_fMRI,509291,51234,32541,1,7,7,B5,helmet,1,7&,3840.9877028,3912.9997963,72.0120935,3922.066236,81.0785332
2653,8*,1,12,21,61,42,32,51,Abstract_Concrete_6tasks_simseq_2seq_listtask_switchAB_fMRI,509291,51234,32541,1,8,8,A3,vest,2,8*,3840.9877028,3929.9985222,89.0108193999999,0,0
4500,9(,1,11,21,62,42,32,52,Abstract_Concrete_6tasks_simseq_2seq_listtask_switchAB_fMRI,509291,51234,32541,1,9,9,B3,tools,6,9(,3840.9877028,3939.9994453,99.0117424999999,0,0
2661,9(,1,11,21,62,41,31,51,Abstract_Concrete_6tasks_simseq_2seq_listtask_switchAB_fMRI,509291,51234,32541,1,10,10,A1,tools,6,9(,3840.9877028,3952.0000052,111.0123024,0,0
1763,3#,1,11,21,62,42,32,52,Abstract_Concrete_6tasks_simseq_2seq_listtask_switchAB_fMRI,509291,51234,32541,1,11,11,B1,glasses,3,3#,3840.9877028,3961.9996309,121.0119281,0,0
3671,2@,1,11,22,62,41,31,52,Abstract_Concrete_6tasks_simseq_2seq_listtask_switchAB_fMRI,509291,51234,32541,1,12,12,A5,weapon,5,2@,3840.9877028,3971.0017349,130.0140321,0,0
7245,2@,1,12,22,62,41,32,51,Abstract_Concrete_6tasks_simseq_2seq_listtask_switchAB_fMRI,509291,51234,32541,1,13,13,B4,weapon,5,2@,3840.9877028,3982.0000016,141.0122988,0,0
4211,8*,1,11,21,61,41,31,52,Abstract_Concrete_6tasks_simseq_2seq_listtask_switchAB_fMRI,509291,51234,32541,1,14,14,A3,vest,2,8*,3840.9877028,3997.0000935,156.0123907,0,0
1890,8*,1,11,22,62,41,32,51,Abstract_Concrete_6tasks_simseq_2seq_listtask_switchAB_fMRI,509291,51234,32541,1,15,15,B2,vest,2,8*,3840.9877028,4009.0006797,168.0129769,0,0
2462,8*,1,11,21,62,41,32,52,Abstract_Concrete_6tasks_simseq_2seq_listtask_switchAB_fMRI,509291,51234,32541,1,16,16,A3,vest,2,8*,3840.9877028,4017.9991628,177.01146,0,0
3111,7&,1,11,22,62,41,31,51,Abstract_Concrete_6tasks_simseq_2seq_listtask_switchAB_fMRI,509291,51234,32541,1,17,17,B5,helmet,1,7&,3840.9877028,4028.0000409,187.0123381,0,0
2585,7&,1,12,22,62,42,32,52,Abstract_Concrete_6tasks_simseq_2seq_listtask_switchAB_fMRI,509291,51234,32541,1,18,18,A2,helmet,1,7&,3840.9877028,4038.9995283,198.0118255,0,0
2096,3#,1,12,21,61,42,31,52,Abstract_Concrete_6tasks_simseq_2seq_listtask_switchAB_fMRI,509291,51234,32541,1,19,19,B1,glasses,3,3#,3840.9877028,4048.9996701,208.0119673,0,0
2143,7&,0,12,21,61,42,31,52,Abstract_Concrete_6tasks_simseq_2seq_listtask_switchAB_fMRI,509291,51234,32541,1,20,20,A1,tools,6,9(,3840.9877028,4058.999503,218.0118002,4061.1566426,220.1689398
2790,9(,1,11,22,61,41,32,51,Abstract_Concrete_6tasks_simseq_2seq_listtask_switchAB_fMRI,509291,51234,32541,1,21,21,B3,tools,6,9(,3840.9877028,4068.9998694,228.0121666,0,0
2397,7&,1,11,22,62,42,31,51,Abstract_Concrete_6tasks_simseq_2seq_listtask_switchAB_fMRI,509291,51234,32541,1,22,22,A2,helmet,1,7&,3840.9877028,4079.0005448,238.012842,0,0
4308,2@,1,11,21,62,41,31,52,Abstract_Concrete_6tasks_simseq_2seq_listtask_switchAB_fMRI,509291,51234,32541,1,23,23,B4,weapon,5,2@,3840.9877028,4088.9999747,248.0122719,0,0
5077,2@,0,12,22,62,42,31,52,Abstract_Concrete_6tasks_simseq_2seq_listtask_switchAB_fMRI,509291,51234,32541,1,24,24,A4,glasses,3,3#,3840.9877028,4100.9995506,260.011847799999,4106.0923906,265.1046878
4432,2@,1,12,22,61,41,31,51,Abstract_Concrete_6tasks_simseq_2seq_listtask_switchAB_fMRI,509291,51234,32541,1,25,25,B4,weapon,5,2@,3840.9877028,4113.998839,273.0111362,0,0
2042,3#,1,11,22,61,41,32,52,Abstract_Concrete_6tasks_simseq_2seq_listtask_switchAB_fMRI,509291,51234,32541,1,26,26,A4,glasses,3,3#,3840.9877028,4125.9999397,285.0122369,0,0
3846,7&,1,11,22,61,42,32,52,Abstract_Concrete_6tasks_simseq_2seq_listtask_switchAB_fMRI,509291,51234,32541,1,27,27,B5,helmet,1,7&,3840.9877028,4136.0002806,295.0125778,0,0
2613,7&,1,12,21,62,42,32,52,Abstract_Concrete_6tasks_simseq_2seq_listtask_switchAB_fMRI,509291,51234,32541,1,28,28,A2,helmet,1,7&,3840.9877028,4147.0004132,306.0127104,0,0
2118,3#,1,11,21,62,41,32,51,Abstract_Concrete_6tasks_simseq_2seq_listtask_switchAB_fMRI,509291,51234,32541,1,29,29,B1,glasses,3,3#,3840.9877028,4156.9983977,316.0106949,0,0
2184,7&,0,11,21,61,42,32,52,Abstract_Concrete_6tasks_simseq_2seq_listtask_switchAB_fMRI,509291,51234,32541,1,30,30,A5,weapon,5,2@,3840.9877028,4167.0015055,326.0138027,4169.1960212,328.2083184
1497,3#,1,11,21,61,42,32,52,Abstract_Concrete_6tasks_simseq_2seq_listtask_switchAB_fMRI,509291,51234,32541,1,31,31,B1,glasses,3,3#,3840.9877028,4176.9993136,336.0116108,0,0
2614,7&,0,12,21,61,42,32,52,Abstract_Concrete_6tasks_simseq_2seq_listtask_switchAB_fMRI,509291,51234,32541,1,32,32,A5,weapon,5,2@,3840.9877028,4186.000611,345.0129082,4188.6374743,347.6497715
4378,9(,1,12,21,61,41,31,51,Abstract_Concrete_6tasks_simseq_2seq_listtask_switchAB_fMRI,509291,51234,32541,1,33,33,B3,tools,6,9(,3840.9877028,4196.0001423,355.0124395,0,0
1539,2@,1,12,21,62,41,32,52,Abstract_Concrete_6tasks_simseq_2seq_listtask_switchAB_fMRI,509291,51234,32541,1,34,34,A5,weapon,5,2@,3840.9877028,4208.0009035,367.0132007,0,0
4596,9(,0,12,22,62,41,31,51,Abstract_Concrete_6tasks_simseq_2seq_listtask_switchAB_fMRI,509291,51234,32541,1,35,35,B4,weapon,5,2@,3840.9877028,4216.9997339,376.0120311,4221.6118785,380.6241757
2865,8*,1,11,22,61,41,32,52,Abstract_Concrete_6tasks_simseq_2seq_listtask_switchAB_fMRI,509291,51234,32541,1,36,36,A3,vest,2,8*,3840.9877028,4229.0000977,388.0123949,0,0
2419,8*,1,12,21,62,42,32,52,Abstract_Concrete_6tasks_simseq_2seq_listtask_switchAB_fMRI,509291,51234,32541,1,37,37,B2,vest,2,8*,3840.9877028,4238.9980677,398.0103649,0,0
2215,7&,1,11,21,61,42,31,51,Abstract_Concrete_6tasks_simseq_2seq_listtask_switchAB_fMRI,509291,51234,32541,1,38,38,A2,helmet,1,7&,3840.9877028,4248.9998149,408.0121121,0,0
4296,7&,1,12,22,62,42,31,52,Abstract_Concrete_6tasks_simseq_2seq_listtask_switchAB_fMRI,509291,51234,32541,1,39,39,B5,helmet,1,7&,3840.9877028,4258.999784,418.0120812,0,0
5155,9(,0,12,21,62,42,32,52,Abstract_Concrete_6tasks_simseq_2seq_listtask_switchAB_fMRI,509291,51234,32541,1,40,40,A4,glasses,3,3#,3840.9877028,4271.001508,430.0138052,4276.1693386,435.1816358
2421,7&,1,11,22,61,42,31,51,Abstract_Concrete_6tasks_simseq_2seq_listtask_switchAB_fMRI,509291,51234,32541,2,1,41,A2,helmet,1,7&,4329.9200206,4337.9282536,8.00823300000047,0,0
3610,7&,0,11,22,61,42,32,51,Abstract_Concrete_6tasks_simseq_2seq_listtask_switchAB_fMRI,509291,51234,32541,2,2,42,B3,tools,6,9(,4329.9200206,4347.9298246,18.0098040000003,4351.5595965,21.6395759000006
2083,9(,1,12,22,61,42,31,51,Abstract_Concrete_6tasks_simseq_2seq_listtask_switchAB_fMRI,509291,51234,32541,2,3,43,A1,tools,6,9(,4329.9200206,4358.9314348,29.0114142000002,0,0
2828,2@,0,12,21,61,41,31,51,Abstract_Concrete_6tasks_simseq_2seq_listtask_switchAB_fMRI,509291,51234,32541,2,4,44,B5,helmet,1,7&,4329.9200206,4368.9343762,39.0143556000003,4371.7798685,41.8598479000002
2505,9(,1,11,21,62,41,32,52,Abstract_Concrete_6tasks_simseq_2seq_listtask_switchAB_fMRI,509291,51234,32541,2,5,45,A1,tools,6,9(,4329.9200206,4378.9320861,49.0120655000001,0,0
3334,8*,0,11,22,62,42,31,51,Abstract_Concrete_6tasks_simseq_2seq_listtask_switchAB_fMRI,509291,51234,32541,2,6,46,B3,tools,6,9(,4329.9200206,4388.9323824,59.0123618000007,4392.2792989,62.3592783000004
3836,7&,0,12,22,61,41,31,52,Abstract_Concrete_6tasks_simseq_2seq_listtask_switchAB_fMRI,509291,51234,32541,2,7,47,A5,weapon,5,2@,4329.9200206,4399.9315178,70.0114972000001,4403.7798825,73.8598619000004
2044,3#,1,12,21,62,41,32,51,Abstract_Concrete_6tasks_simseq_2seq_listtask_switchAB_fMRI,509291,51234,32541,2,8,48,B1,glasses,3,3#,4329.9200206,4410.9322111,81.0121905000005,0,0
2091,9(,1,11,21,61,41,32,51,Abstract_Concrete_6tasks_simseq_2seq_listtask_switchAB_fMRI,509291,51234,32541,2,9,49,A1,tools,6,9(,4329.9200206,4420.932902,91.0128814,0,0
2855,9(,1,12,22,62,42,32,51,Abstract_Concrete_6tasks_simseq_2seq_listtask_switchAB_fMRI,509291,51234,32541,2,10,50,B3,tools,6,9(,4329.9200206,4430.9333439,101.013323300001,0,0
4770,2@,1,12,21,61,41,32,51,Abstract_Concrete_6tasks_simseq_2seq_listtask_switchAB_fMRI,509291,51234,32541,2,11,51,A5,weapon,5,2@,4329.9200206,4440.9296486,111.009628000001,0,0
2323,7&,1,12,22,61,42,32,52,Abstract_Concrete_6tasks_simseq_2seq_listtask_switchAB_fMRI,509291,51234,32541,2,12,52,B5,helmet,1,7&,4329.9200206,4452.932764,123.012743400001,0,0
5322,3#,1,12,21,62,41,31,51,Abstract_Concrete_6tasks_simseq_2seq_listtask_switchAB_fMRI,509291,51234,32541,2,13,53,A4,glasses,3,3#,4329.9200206,4462.9340239,133.014003300001,0,0
1706,3#,1,11,22,61,41,31,51,Abstract_Concrete_6tasks_simseq_2seq_listtask_switchAB_fMRI,509291,51234,32541,2,14,54,B1,glasses,3,3#,4329.9200206,4475.931917,146.0118964,0,0
1808,7&,1,12,21,62,41,31,52,Abstract_Concrete_6tasks_simseq_2seq_listtask_switchAB_fMRI,509291,51234,32541,2,15,55,A2,helmet,1,7&,4329.9200206,4484.9324279,155.012407300001,0,0
1647,8*,1,12,22,61,42,32,52,Abstract_Concrete_6tasks_simseq_2seq_listtask_switchAB_fMRI,509291,51234,32541,2,16,56,B2,vest,2,8*,4329.9200206,4493.9332919,164.0132713,0,0
1925,7&,1,11,21,62,41,32,51,Abstract_Concrete_6tasks_simseq_2seq_listtask_switchAB_fMRI,509291,51234,32541,2,17,57,A2,helmet,1,7&,4329.9200206,4502.9316171,173.0115965,0,0
5161,2@,1,12,22,61,42,32,51,Abstract_Concrete_6tasks_simseq_2seq_listtask_switchAB_fMRI,509291,51234,32541,2,18,58,B4,weapon,5,2@,4329.9200206,4511.9321892,182.0121686,0,0
2664,2@,1,11,22,61,42,31,51,Abstract_Concrete_6tasks_simseq_2seq_listtask_switchAB_fMRI,509291,51234,32541,2,19,59,A5,weapon,5,2@,4329.9200206,4524.9323848,195.012364200001,0,0
1621,3#,1,12,21,61,41,31,52,Abstract_Concrete_6tasks_simseq_2seq_listtask_switchAB_fMRI,509291,51234,32541,2,20,60,B1,glasses,3,3#,4329.9200206,4534.9329339,205.0129133,0,0
2675,8*,1,11,21,61,42,31,52,Abstract_Concrete_6tasks_simseq_2seq_listtask_switchAB_fMRI,509291,51234,32541,2,21,61,A3,vest,2,8*,4329.9200206,4543.9333386,214.013318,0,0
2896,7&,1,12,22,62,42,32,51,Abstract_Concrete_6tasks_simseq_2seq_listtask_switchAB_fMRI,509291,51234,32541,2,22,62,B5,helmet,1,7&,4329.9200206,4553.9314937,224.0114731,0,0
2638,2@,0,11,22,62,42,32,52,Abstract_Concrete_6tasks_simseq_2seq_listtask_switchAB_fMRI,509291,51234,32541,2,23,63,A4,glasses,3,3#,4329.9200206,4563.9314999,234.0114793,4566.5843849,236.664364300001
2828,8*,1,12,21,61,42,32,52,Abstract_Concrete_6tasks_simseq_2seq_listtask_switchAB_fMRI,509291,51234,32541,2,24,64,B2,vest,2,8*,4329.9200206,4573.9299122,244.009891600001,0,0
2300,8*,1,11,22,62,42,32,52,Abstract_Concrete_6tasks_simseq_2seq_listtask_switchAB_fMRI,509291,51234,32541,2,25,65,A3,vest,2,8*,4329.9200206,4583.931576,254.0115554,0,0
3069,8*,0,11,22,62,41,32,52,Abstract_Concrete_6tasks_simseq_2seq_listtask_switchAB_fMRI,509291,51234,32541,2,26,66,B3,tools,6,9(,4329.9200206,4593.9331825,264.0131619,4597.0138976,267.093877
1954,7&,1,11,22,62,41,31,51,Abstract_Concrete_6tasks_simseq_2seq_listtask_switchAB_fMRI,509291,51234,32541,2,27,67,A2,helmet,1,7&,4329.9200206,4604.9298986,275.009878000001,0,0
2986,2@,1,11,21,61,41,32,52,Abstract_Concrete_6tasks_simseq_2seq_listtask_switchAB_fMRI,509291,51234,32541,2,28,68,B4,weapon,5,2@,4329.9200206,4613.9312841,284.0112635,0,0
4581,3#,1,11,21,62,42,31,52,Abstract_Concrete_6tasks_simseq_2seq_listtask_switchAB_fMRI,509291,51234,32541,2,29,69,A4,glasses,3,3#,4329.9200206,4623.9307034,294.010682800001,0,0
3670,2@,1,12,22,61,42,32,52,Abstract_Concrete_6tasks_simseq_2seq_listtask_switchAB_fMRI,509291,51234,32541,2,30,70,B4,weapon,5,2@,4329.9200206,4635.9316887,306.011668100001,0,0
4594,2@,0,11,21,62,42,32,52,Abstract_Concrete_6tasks_simseq_2seq_listtask_switchAB_fMRI,509291,51234,32541,2,31,71,A4,glasses,3,3#,4329.9200206,4646.9313116,317.011291000001,4651.5364423,321.616421700001
2512,7&,1,12,22,62,42,31,51,Abstract_Concrete_6tasks_simseq_2seq_listtask_switchAB_fMRI,509291,51234,32541,2,32,72,B5,helmet,1,7&,4329.9200206,4658.930747,329.010726400001,0,0
2127,9(,1,12,22,62,41,32,51,Abstract_Concrete_6tasks_simseq_2seq_listtask_switchAB_fMRI,509291,51234,32541,2,33,73,A1,tools,6,9(,4329.9200206,4668.9329183,339.0128977,0,0
1795,8*,1,12,22,62,41,31,52,Abstract_Concrete_6tasks_simseq_2seq_listtask_switchAB_fMRI,509291,51234,32541,2,34,74,B2,vest,2,8*,4329.9200206,4678.9317729,349.011752300001,0,0
3800,7&,0,11,22,61,41,32,51,Abstract_Concrete_6tasks_simseq_2seq_listtask_switchAB_fMRI,509291,51234,32541,2,35,75,A5,weapon,5,2@,4329.9200206,4687.931521,358.011500400001,4691.7439431,361.823922500001
1748,8*,1,11,22,61,41,32,52,Abstract_Concrete_6tasks_simseq_2seq_listtask_switchAB_fMRI,509291,51234,32541,2,36,76,B2,vest,2,8*,4329.9200206,4698.9308271,369.0108065,0,0
2339,8*,1,11,21,61,41,31,51,Abstract_Concrete_6tasks_simseq_2seq_listtask_switchAB_fMRI,509291,51234,32541,2,37,77,A3,vest,2,8*,4329.9200206,4707.9312224,378.0112018,0,0
1243,3#,1,12,22,61,42,32,52,Abstract_Concrete_6tasks_simseq_2seq_listtask_switchAB_fMRI,509291,51234,32541,2,38,78,B1,glasses,3,3#,4329.9200206,4717.9323889,388.0123683,0,0
2479,8*,1,11,21,62,41,31,52,Abstract_Concrete_6tasks_simseq_2seq_listtask_switchAB_fMRI,509291,51234,32541,2,39,79,A3,vest,2,8*,4329.9200206,4726.9309351,397.010914500001,0,0
3654,2@,1,12,22,61,41,32,52,Abstract_Concrete_6tasks_simseq_2seq_listtask_switchAB_fMRI,509291,51234,32541,2,40,80,B4,weapon,5,2@,4329.9200206,4736.9307904,407.0107698,0,0
3125,9(,1,11,21,62,42,32,52,Abstract_Concrete_6tasks_simseq_2seq_listtask_switchAB_fMRI,509291,51234,32541,3,1,81,B3,tools,6,9(,4806.7099792,4814.7205469,8.01056770000014,0,0
5625,2@,0,11,21,61,42,32,51,Abstract_Concrete_6tasks_simseq_2seq_listtask_switchAB_fMRI,509291,51234,32541,3,2,82,A4,glasses,3,3#,4806.7099792,4825.7206843,19.0107051000005,4831.3677529,24.6577736999998
1589,3#,1,11,21,61,41,32,52,Abstract_Concrete_6tasks_simseq_2seq_listtask_switchAB_fMRI,509291,51234,32541,3,3,83,B1,glasses,3,3#,4806.7099792,4838.7218729,32.0118936999997,0,0
5933,2@,0,11,22,61,41,32,51,Abstract_Concrete_6tasks_simseq_2seq_listtask_switchAB_fMRI,509291,51234,32541,3,4,84,A4,glasses,3,3#,4806.7099792,4847.7212902,41.0113110000002,4853.6730303,46.9630511000005
2100,9(,1,11,21,62,41,31,51,Abstract_Concrete_6tasks_simseq_2seq_listtask_switchAB_fMRI,509291,51234,32541,3,5,85,B3,tools,6,9(,4806.7099792,4860.7207505,54.0107712999998,0,0
3222,8*,1,11,21,61,41,31,51,Abstract_Concrete_6tasks_simseq_2seq_listtask_switchAB_fMRI,509291,51234,32541,3,6,86,A3,vest,2,8*,4806.7099792,4870.7230195,64.0130403000003,0,0
1326,3#,1,12,22,62,41,32,51,Abstract_Concrete_6tasks_simseq_2seq_listtask_switchAB_fMRI,509291,51234,32541,3,7,87,B1,glasses,3,3#,4806.7099792,4881.7235833,75.0136041000005,0,0
2189,7&,1,11,21,62,41,32,52,Abstract_Concrete_6tasks_simseq_2seq_listtask_switchAB_fMRI,509291,51234,32541,3,8,88,A2,helmet,1,7&,4806.7099792,4890.7229408,84.0129616000004,0,0
1425,8*,1,11,21,62,42,31,52,Abstract_Concrete_6tasks_simseq_2seq_listtask_switchAB_fMRI,509291,51234,32541,3,9,89,B2,vest,2,8*,4806.7099792,4900.7212631,94.0112839000003,0,0
1432,3#,1,12,22,61,42,31,51,Abstract_Concrete_6tasks_simseq_2seq_listtask_switchAB_fMRI,509291,51234,32541,3,10,90,A4,glasses,3,3#,4806.7099792,4909.7239835,103.0140043,0,0
1976,9(,1,12,21,62,42,32,51,Abstract_Concrete_6tasks_simseq_2seq_listtask_switchAB_fMRI,509291,51234,32541,3,11,91,B3,tools,6,9(,4806.7099792,4918.7258999,112.0159207,0,0
2496,2@,1,11,21,62,42,31,51,Abstract_Concrete_6tasks_simseq_2seq_listtask_switchAB_fMRI,509291,51234,32541,3,12,92,A5,weapon,5,2@,4806.7099792,4927.7236818,121.0137026,0,0
2238,9(,1,12,22,61,41,31,52,Abstract_Concrete_6tasks_simseq_2seq_listtask_switchAB_fMRI,509291,51234,32541,3,13,93,B3,tools,6,9(,4806.7099792,4937.7198304,131.0098512,0,0
1197,9(,1,11,21,61,42,32,51,Abstract_Concrete_6tasks_simseq_2seq_listtask_switchAB_fMRI,509291,51234,32541,3,14,94,A1,tools,6,9(,4806.7099792,4947.7193448,141.0093656,0,0
1448,8*,1,11,22,61,41,32,52,Abstract_Concrete_6tasks_simseq_2seq_listtask_switchAB_fMRI,509291,51234,32541,3,15,95,B2,vest,2,8*,4806.7099792,4956.7212987,150.0113195,0,0
2452,8*,1,11,21,61,42,32,52,Abstract_Concrete_6tasks_simseq_2seq_listtask_switchAB_fMRI,509291,51234,32541,3,16,96,A3,vest,2,8*,4806.7099792,4965.7209706,159.0109914,0,0
4037,2@,1,12,21,61,41,31,51,Abstract_Concrete_6tasks_simseq_2seq_listtask_switchAB_fMRI,509291,51234,32541,3,17,97,B4,weapon,5,2@,4806.7099792,4975.7235819,169.0136027,0,0
1425,9(,1,12,21,62,41,31,52,Abstract_Concrete_6tasks_simseq_2seq_listtask_switchAB_fMRI,509291,51234,32541,3,18,98,A1,tools,6,9(,4806.7099792,4987.7230244,181.0130452,0,0
4825,7&,1,12,21,62,41,31,52,Abstract_Concrete_6tasks_simseq_2seq_listtask_switchAB_fMRI,509291,51234,32541,3,19,99,B5,helmet,1,7&,4806.7099792,4996.7213878,190.0114086,0,0
1962,7&,1,11,21,61,41,32,52,Abstract_Concrete_6tasks_simseq_2seq_listtask_switchAB_fMRI,509291,51234,32541,3,20,100,A2,helmet,1,7&,4806.7099792,5008.7229319,202.0129527,0,0
4342,2@,1,12,22,62,41,31,51,Abstract_Concrete_6tasks_simseq_2seq_listtask_switchAB_fMRI,509291,51234,32541,3,21,101,B4,weapon,5,2@,4806.7099792,5017.7208783,211.0108991,0,0
2287,2@,1,11,22,62,41,32,51,Abstract_Concrete_6tasks_simseq_2seq_listtask_switchAB_fMRI,509291,51234,32541,3,22,102,A5,weapon,5,2@,4806.7099792,5029.7236198,223.0136406,0,0
3270,2@,1,12,21,61,41,31,52,Abstract_Concrete_6tasks_simseq_2seq_listtask_switchAB_fMRI,509291,51234,32541,3,23,103,B4,weapon,5,2@,4806.7099792,5039.7227475,233.0127683,0,0
1981,7&,1,11,21,62,42,32,51,Abstract_Concrete_6tasks_simseq_2seq_listtask_switchAB_fMRI,509291,51234,32541,3,24,104,A2,helmet,1,7&,4806.7099792,5050.7217838,244.0118046,0,0
2887,7&,1,12,22,61,41,32,51,Abstract_Concrete_6tasks_simseq_2seq_listtask_switchAB_fMRI,509291,51234,32541,3,25,105,B5,helmet,1,7&,4806.7099792,5059.7210607,253.0110815,0,0
1570,9(,1,12,21,61,42,31,52,Abstract_Concrete_6tasks_simseq_2seq_listtask_switchAB_fMRI,509291,51234,32541,3,26,106,A1,tools,6,9(,4806.7099792,5069.7223276,263.012348400001,0,0
1490,8*,1,12,21,62,41,31,51,Abstract_Concrete_6tasks_simseq_2seq_listtask_switchAB_fMRI,509291,51234,32541,3,27,107,B2,vest,2,8*,4806.7099792,5078.7203821,272.0104029,0,0
1945,8*,1,12,22,62,41,31,52,Abstract_Concrete_6tasks_simseq_2seq_listtask_switchAB_fMRI,509291,51234,32541,3,28,108,A3,vest,2,8*,4806.7099792,5087.7228675,281.0128883,0,0
2982,7&,1,12,22,61,41,31,51,Abstract_Concrete_6tasks_simseq_2seq_listtask_switchAB_fMRI,509291,51234,32541,3,29,109,B5,helmet,1,7&,4806.7099792,5096.7213243,290.0113451,0,0
1236,2@,1,11,21,62,41,32,51,Abstract_Concrete_6tasks_simseq_2seq_listtask_switchAB_fMRI,509291,51234,32541,3,30,110,A5,weapon,5,2@,4806.7099792,5106.7223341,300.0123549,0,0
5416,9(,0,11,21,61,42,31,51,Abstract_Concrete_6tasks_simseq_2seq_listtask_switchAB_fMRI,509291,51234,32541,3,31,111,B4,weapon,5,2@,4806.7099792,5115.7231521,309.0131729,5121.1524694,314.4424902
1904,8*,1,11,22,62,42,31,51,Abstract_Concrete_6tasks_simseq_2seq_listtask_switchAB_fMRI,509291,51234,32541,3,32,112,A3,vest,2,8*,4806.7099792,5128.7206041,322.0106249,0,0
2319,3#,1,11,21,61,42,31,52,Abstract_Concrete_6tasks_simseq_2seq_listtask_switchAB_fMRI,509291,51234,32541,3,33,113,B1,glasses,3,3#,4806.7099792,5137.7212282,331.011249,0,0
1865,2@,1,12,22,62,42,31,52,Abstract_Concrete_6tasks_simseq_2seq_listtask_switchAB_fMRI,509291,51234,32541,3,34,114,A5,weapon,5,2@,4806.7099792,5147.7216279,341.0116487,0,0
2612,7&,1,11,21,61,41,32,52,Abstract_Concrete_6tasks_simseq_2seq_listtask_switchAB_fMRI,509291,51234,32541,3,35,115,B5,helmet,1,7&,4806.7099792,5156.7211959,350.0112167,0,0
1925,9(,1,11,21,62,41,32,52,Abstract_Concrete_6tasks_simseq_2seq_listtask_switchAB_fMRI,509291,51234,32541,3,36,116,A1,tools,6,9(,4806.7099792,5166.7223083,360.0123291,0,0
1285,3#,1,11,21,62,41,32,51,Abstract_Concrete_6tasks_simseq_2seq_listtask_switchAB_fMRI,509291,51234,32541,3,37,117,B1,glasses,3,3#,4806.7099792,5175.7213141,369.0113349,0,0
1818,7&,1,11,22,61,42,31,51,Abstract_Concrete_6tasks_simseq_2seq_listtask_switchAB_fMRI,509291,51234,32541,3,38,118,A2,helmet,1,7&,4806.7099792,5184.7221924,378.0122132,0,0
1344,8*,1,11,21,61,42,31,52,Abstract_Concrete_6tasks_simseq_2seq_listtask_switchAB_fMRI,509291,51234,32541,3,39,119,B2,vest,2,8*,4806.7099792,5193.7215601,387.0115809,0,0
4940,3#,1,11,22,61,42,32,52,Abstract_Concrete_6tasks_simseq_2seq_listtask_switchAB_fMRI,509291,51234,32541,3,40,120,A4,glasses,3,3#,4806.7099792,5202.7205636,396.0105844,0,0
2056,7&,1,12,22,62,41,32,51,Abstract_Concrete_6tasks_simseq_2seq_listtask_switchAB_fMRI,509291,51234,32541,4,1,121,A2,helmet,1,7&,5335.4623929,5343.4730219,8.01062900000034,0,0
1456,8*,1,12,22,62,41,32,51,Abstract_Concrete_6tasks_simseq_2seq_listtask_switchAB_fMRI,509291,51234,32541,4,2,122,B2,vest,2,8*,5335.4623929,5353.4719012,18.0095082999997,0,0
2278,7&,1,11,21,62,42,32,51,Abstract_Concrete_6tasks_simseq_2seq_listtask_switchAB_fMRI,509291,51234,32541,4,3,123,A2,helmet,1,7&,5335.4623929,5362.4745975,27.0122045999997,0,0
1971,3#,1,11,22,62,42,32,51,Abstract_Concrete_6tasks_simseq_2seq_listtask_switchAB_fMRI,509291,51234,32541,4,4,124,B1,glasses,3,3#,5335.4623929,5372.4743766,37.0119837000002,0,0
2840,3#,1,11,21,61,41,31,52,Abstract_Concrete_6tasks_simseq_2seq_listtask_switchAB_fMRI,509291,51234,32541,4,5,125,A4,glasses,3,3#,5335.4623929,5381.4741886,46.0117957000002,0,0
3069,9(,1,11,22,61,41,32,52,Abstract_Concrete_6tasks_simseq_2seq_listtask_switchAB_fMRI,509291,51234,32541,4,6,126,B3,tools,6,9(,5335.4623929,5391.4740724,56.0116795000004,0,0
3692,3#,1,11,21,61,42,32,51,Abstract_Concrete_6tasks_simseq_2seq_listtask_switchAB_fMRI,509291,51234,32541,4,7,127,A4,glasses,3,3#,5335.4623929,5402.4758935,67.0135006,0,0
2053,3#,1,12,22,61,42,31,51,Abstract_Concrete_6tasks_simseq_2seq_listtask_switchAB_fMRI,509291,51234,32541,4,8,128,B1,glasses,3,3#,5335.4623929,5413.4745791,78.0121861999996,0,0
3345,2@,1,11,22,61,42,31,52,Abstract_Concrete_6tasks_simseq_2seq_listtask_switchAB_fMRI,509291,51234,32541,4,9,129,A5,weapon,5,2@,5335.4623929,5423.4748918,88.0124988999996,0,0
1884,7&,1,11,21,61,42,32,52,Abstract_Concrete_6tasks_simseq_2seq_listtask_switchAB_fMRI,509291,51234,32541,4,10,130,B5,helmet,1,7&,5335.4623929,5434.4742245,99.0118315999998,0,0
1879,8*,1,11,22,62,42,32,51,Abstract_Concrete_6tasks_simseq_2seq_listtask_switchAB_fMRI,509291,51234,32541,4,11,131,A3,vest,2,8*,5335.4623929,5443.4740647,108.0116718,0,0
1316,8*,1,11,22,61,41,32,52,Abstract_Concrete_6tasks_simseq_2seq_listtask_switchAB_fMRI,509291,51234,32541,4,12,132,B2,vest,2,8*,5335.4623929,5452.4741739,117.011781,0,0
1767,8*,1,11,21,62,42,32,51,Abstract_Concrete_6tasks_simseq_2seq_listtask_switchAB_fMRI,509291,51234,32541,4,13,133,A3,vest,2,8*,5335.4623929,5461.4746181,126.0122252,0,0
5265,2@,1,12,21,62,41,32,51,Abstract_Concrete_6tasks_simseq_2seq_listtask_switchAB_fMRI,509291,51234,32541,4,14,134,B4,weapon,5,2@,5335.4623929,5470.4732664,135.0108735,0,0
1559,7&,1,12,22,61,41,32,52,Abstract_Concrete_6tasks_simseq_2seq_listtask_switchAB_fMRI,509291,51234,32541,4,15,135,A2,helmet,1,7&,5335.4623929,5483.4758259,148.013433,0,0
4118,7&,1,11,22,61,42,31,52,Abstract_Concrete_6tasks_simseq_2seq_listtask_switchAB_fMRI,509291,51234,32541,4,16,136,B5,helmet,1,7&,5335.4623929,5492.4733354,157.0109425,0,0
1956,2@,1,12,22,61,41,31,51,Abstract_Concrete_6tasks_simseq_2seq_listtask_switchAB_fMRI,509291,51234,32541,4,17,137,A5,weapon,5,2@,5335.4623929,5504.4739169,169.011524,0,0
2980,9(,1,11,22,62,41,32,52,Abstract_Concrete_6tasks_simseq_2seq_listtask_switchAB_fMRI,509291,51234,32541,4,18,138,B3,tools,6,9(,5335.4623929,5513.4755323,178.0131394,0,0
3233,3#,1,12,22,62,42,31,52,Abstract_Concrete_6tasks_simseq_2seq_listtask_switchAB_fMRI,509291,51234,32541,4,19,139,A4,glasses,3,3#,5335.4623929,5523.4740169,188.011624,0,0
1295,3#,1,12,21,61,41,31,52,Abstract_Concrete_6tasks_simseq_2seq_listtask_switchAB_fMRI,509291,51234,32541,4,20,140,B1,glasses,3,3#,5335.4623929,5534.4748284,199.0124355,0,0
2624,3#,1,12,21,62,42,32,52,Abstract_Concrete_6tasks_simseq_2seq_listtask_switchAB_fMRI,509291,51234,32541,4,21,141,A4,glasses,3,3#,5335.4623929,5543.4751219,208.012729,0,0
1902,9(,1,11,21,62,42,31,51,Abstract_Concrete_6tasks_simseq_2seq_listtask_switchAB_fMRI,509291,51234,32541,4,22,142,B3,tools,6,9(,5335.4623929,5553.4743478,218.0119549,0,0
1729,7&,1,11,21,61,41,32,52,Abstract_Concrete_6tasks_simseq_2seq_listtask_switchAB_fMRI,509291,51234,32541,4,23,143,A2,helmet,1,7&,5335.4623929,5562.4740115,227.0116186,0,0
2102,2@,1,11,21,61,42,31,51,Abstract_Concrete_6tasks_simseq_2seq_listtask_switchAB_fMRI,509291,51234,32541,4,24,144,B4,weapon,5,2@,5335.4623929,5571.4740887,236.0116958,0,0
1645,8*,1,12,22,62,42,31,52,Abstract_Concrete_6tasks_simseq_2seq_listtask_switchAB_fMRI,509291,51234,32541,4,25,145,A3,vest,2,8*,5335.4623929,5581.4751667,246.0127738,0,0
2487,2@,1,12,21,62,41,31,51,Abstract_Concrete_6tasks_simseq_2seq_listtask_switchAB_fMRI,509291,51234,32541,4,26,146,B4,weapon,5,2@,5335.4623929,5590.4749402,255.0125473,0,0
1822,9(,1,12,22,62,42,31,52,Abstract_Concrete_6tasks_simseq_2seq_listtask_switchAB_fMRI,509291,51234,32541,4,27,147,A1,tools,6,9(,5335.4623929,5600.4742696,265.0118767,0,0
1989,2@,1,12,21,61,42,32,52,Abstract_Concrete_6tasks_simseq_2seq_listtask_switchAB_fMRI,509291,51234,32541,4,28,148,B4,weapon,5,2@,5335.4623929,5609.4740022,274.0116093,0,0
3819,2@,1,11,21,62,41,32,52,Abstract_Concrete_6tasks_simseq_2seq_listtask_switchAB_fMRI,509291,51234,32541,4,29,149,A5,weapon,5,2@,5335.4623929,5619.4757799,284.013387,0,0
961,7&,1,11,22,62,42,31,52,Abstract_Concrete_6tasks_simseq_2seq_listtask_switchAB_fMRI,509291,51234,32541,4,30,150,B5,helmet,1,7&,5335.4623929,5630.4750783,295.0126854,0,0
2026,8*,1,12,22,61,42,32,52,Abstract_Concrete_6tasks_simseq_2seq_listtask_switchAB_fMRI,509291,51234,32541,4,31,151,A3,vest,2,8*,5335.4623929,5638.4737403,303.0113474,0,0
1592,9(,1,12,21,61,41,32,51,Abstract_Concrete_6tasks_simseq_2seq_listtask_switchAB_fMRI,509291,51234,32541,4,32,152,B3,tools,6,9(,5335.4623929,5648.4744357,313.0120428,0,0
1672,2@,1,12,21,61,42,32,52,Abstract_Concrete_6tasks_simseq_2seq_listtask_switchAB_fMRI,509291,51234,32541,4,33,153,A5,weapon,5,2@,5335.4623929,5657.4753293,322.0129364,0,0
1035,3#,1,11,22,61,41,31,51,Abstract_Concrete_6tasks_simseq_2seq_listtask_switchAB_fMRI,509291,51234,32541,4,34,154,B1,glasses,3,3#,5335.4623929,5666.4735185,331.0111256,0,0
1201,9(,1,11,22,61,41,32,51,Abstract_Concrete_6tasks_simseq_2seq_listtask_switchAB_fMRI,509291,51234,32541,4,35,155,A1,tools,6,9(,5335.4623929,5675.4760316,340.0136387,0,0
780,8*,1,12,22,61,42,31,51,Abstract_Concrete_6tasks_simseq_2seq_listtask_switchAB_fMRI,509291,51234,32541,4,36,156,B2,vest,2,8*,5335.4623929,5684.4754935,349.0131006,0,0
1298,9(,1,12,22,62,42,32,52,Abstract_Concrete_6tasks_simseq_2seq_listtask_switchAB_fMRI,509291,51234,32541,4,37,157,A1,tools,6,9(,5335.4623929,5692.4752354,357.0128425,0,0
2015,7&,1,12,22,61,41,31,52,Abstract_Concrete_6tasks_simseq_2seq_listtask_switchAB_fMRI,509291,51234,32541,4,38,158,B5,helmet,1,7&,5335.4623929,5701.4732151,366.0108222,0,0
1193,9(,1,11,21,61,41,31,51,Abstract_Concrete_6tasks_simseq_2seq_listtask_switchAB_fMRI,509291,51234,32541,4,39,159,A1,tools,6,9(,5335.4623929,5711.4774614,376.0150685,0,0
1661,8*,1,11,22,62,42,32,51,Abstract_Concrete_6tasks_simseq_2seq_listtask_switchAB_fMRI,509291,51234,32541,4,40,160,B2,vest,2,8*,5335.4623929,5720.4733534,385.0109605,0,0
2064,7&,1,11,22,62,42,31,52,Abstract_Concrete_6tasks_simseq_2seq_listtask_switchAB_fMRI,509291,51234,32541,5,1,161,B5,helmet,1,7&,5834.040833,5842.0530202,8.01218719999997,0,0
2163,8*,1,11,21,61,41,32,51,Abstract_Concrete_6tasks_simseq_2seq_listtask_switchAB_fMRI,509291,51234,32541,5,2,162,A3,vest,2,8*,5834.040833,5852.0515142,18.0106812000004,0,0
2854,9(,1,12,22,62,42,32,52,Abstract_Concrete_6tasks_simseq_2seq_listtask_switchAB_fMRI,509291,51234,32541,5,3,163,B3,tools,6,9(,5834.040833,5862.0520193,28.0111863000002,0,0
1591,8*,1,11,21,61,41,31,51,Abstract_Concrete_6tasks_simseq_2seq_listtask_switchAB_fMRI,509291,51234,32541,5,4,164,A3,vest,2,8*,5834.040833,5872.0521237,38.0112907000002,0,0
1103,3#,1,12,21,61,42,31,51,Abstract_Concrete_6tasks_simseq_2seq_listtask_switchAB_fMRI,509291,51234,32541,5,5,165,B1,glasses,3,3#,5834.040833,5881.0526686,47.0118356000003,0,0
2218,3#,1,12,21,62,42,31,51,Abstract_Concrete_6tasks_simseq_2seq_listtask_switchAB_fMRI,509291,51234,32541,5,6,166,A4,glasses,3,3#,5834.040833,5890.053745,56.0129120000001,0,0
2020,7&,1,12,22,61,41,31,52,Abstract_Concrete_6tasks_simseq_2seq_listtask_switchAB_fMRI,509291,51234,32541,5,7,167,B5,helmet,1,7&,5834.040833,5900.0530491,66.0122160999999,0,0
5126,3#,1,12,22,62,42,32,51,Abstract_Concrete_6tasks_simseq_2seq_listtask_switchAB_fMRI,509291,51234,32541,5,8,168,A4,glasses,3,3#,5834.040833,5910.0534061,76.0125730999998,0,0
1388,8*,1,11,22,62,42,32,52,Abstract_Concrete_6tasks_simseq_2seq_listtask_switchAB_fMRI,509291,51234,32541,5,9,169,B2,vest,2,8*,5834.040833,5923.0521833,89.0113503000002,0,0
1404,2@,1,11,22,62,41,31,51,Abstract_Concrete_6tasks_simseq_2seq_listtask_switchAB_fMRI,509291,51234,32541,5,10,170,A5,weapon,5,2@,5834.040833,5932.0520085,98.0111754999998,0,0
3615,7&,0,12,21,61,41,32,51,Abstract_Concrete_6tasks_simseq_2seq_listtask_switchAB_fMRI,509291,51234,32541,5,11,171,B4,weapon,5,2@,5834.040833,5941.0539012,107.0130682,5944.6838635,110.6430305
5601,3#,1,12,21,62,41,32,52,Abstract_Concrete_6tasks_simseq_2seq_listtask_switchAB_fMRI,509291,51234,32541,5,12,172,A4,glasses,3,3#,5834.040833,5952.0532379,118.0124049,0,0
1722,3#,1,11,21,62,42,31,52,Abstract_Concrete_6tasks_simseq_2seq_listtask_switchAB_fMRI,509291,51234,32541,5,13,173,B1,glasses,3,3#,5834.040833,5965.0521354,131.0113024,0,0
1882,7&,1,11,21,62,42,32,52,Abstract_Concrete_6tasks_simseq_2seq_listtask_switchAB_fMRI,509291,51234,32541,5,14,174,A2,helmet,1,7&,5834.040833,5974.0521432,140.0113102,0,0
2172,9(,1,11,21,62,42,32,52,Abstract_Concrete_6tasks_simseq_2seq_listtask_switchAB_fMRI,509291,51234,32541,5,15,175,B3,tools,6,9(,5834.040833,5983.0526641,149.0118311,0,0
3577,3#,1,11,21,61,42,31,51,Abstract_Concrete_6tasks_simseq_2seq_listtask_switchAB_fMRI,509291,51234,32541,5,16,176,A4,glasses,3,3#,5834.040833,5993.0532695,159.0124365,0,0
2307,3#,1,11,21,61,42,32,52,Abstract_Concrete_6tasks_simseq_2seq_listtask_switchAB_fMRI,509291,51234,32541,5,17,177,B1,glasses,3,3#,5834.040833,6004.0530615,170.0122285,0,0
762,9(,1,12,22,62,42,32,51,Abstract_Concrete_6tasks_simseq_2seq_listtask_switchAB_fMRI,509291,51234,32541,5,18,178,A1,tools,6,9(,5834.040833,6014.0521042,180.0112712,0,0
1384,8*,1,11,21,62,42,31,51,Abstract_Concrete_6tasks_simseq_2seq_listtask_switchAB_fMRI,509291,51234,32541,5,19,179,B2,vest,2,8*,5834.040833,6022.0528221,188.0119891,0,0
2954,8*,1,12,21,62,41,32,52,Abstract_Concrete_6tasks_simseq_2seq_listtask_switchAB_fMRI,509291,51234,32541,5,20,180,A3,vest,2,8*,5834.040833,6031.053335,197.012502,0,0
1172,8*,1,11,22,62,41,32,52,Abstract_Concrete_6tasks_simseq_2seq_listtask_switchAB_fMRI,509291,51234,32541,5,21,181,B2,vest,2,8*,5834.040833,6041.0504344,207.0096014,0,0
1282,8*,1,12,22,61,42,32,51,Abstract_Concrete_6tasks_simseq_2seq_listtask_switchAB_fMRI,509291,51234,32541,5,22,182,A3,vest,2,8*,5834.040833,6050.051258,216.010425,0,0
2567,2@,1,12,22,62,41,32,52,Abstract_Concrete_6tasks_simseq_2seq_listtask_switchAB_fMRI,509291,51234,32541,5,23,183,B4,weapon,5,2@,5834.040833,6059.0525348,225.0117018,0,0
1668,9(,1,12,21,62,41,31,51,Abstract_Concrete_6tasks_simseq_2seq_listtask_switchAB_fMRI,509291,51234,32541,5,24,184,A1,tools,6,9(,5834.040833,6069.0525559,235.0117229,0,0
2469,2@,1,12,22,62,42,31,51,Abstract_Concrete_6tasks_simseq_2seq_listtask_switchAB_fMRI,509291,51234,32541,5,25,185,B4,weapon,5,2@,5834.040833,6078.0502657,244.0094327,0,0
1668,2@,1,12,21,62,41,31,51,Abstract_Concrete_6tasks_simseq_2seq_listtask_switchAB_fMRI,509291,51234,32541,5,26,186,A5,weapon,5,2@,5834.040833,6088.0527525,254.0119195,0,0
1256,3#,1,12,21,61,42,32,51,Abstract_Concrete_6tasks_simseq_2seq_listtask_switchAB_fMRI,509291,51234,32541,5,27,187,B1,glasses,3,3#,5834.040833,6097.0527305,263.0118975,0,0
1483,7&,1,11,21,61,42,31,52,Abstract_Concrete_6tasks_simseq_2seq_listtask_switchAB_fMRI,509291,51234,32541,5,28,188,A2,helmet,1,7&,5834.040833,6106.0541512,272.0133182,0,0
1764,9(,1,12,22,62,41,31,52,Abstract_Concrete_6tasks_simseq_2seq_listtask_switchAB_fMRI,509291,51234,32541,5,29,189,B3,tools,6,9(,5834.040833,6115.0538655,281.0130325,0,0
1789,2@,1,11,21,61,42,32,52,Abstract_Concrete_6tasks_simseq_2seq_listtask_switchAB_fMRI,509291,51234,32541,5,30,190,A5,weapon,5,2@,5834.040833,6124.0527265,290.0118935,0,0
1220,7&,1,12,22,62,41,31,51,Abstract_Concrete_6tasks_simseq_2seq_listtask_switchAB_fMRI,509291,51234,32541,5,31,191,B5,helmet,1,7&,5834.040833,6133.0536561,299.0128231,0,0
1099,2@,1,12,21,62,42,31,51,Abstract_Concrete_6tasks_simseq_2seq_listtask_switchAB_fMRI,509291,51234,32541,5,32,192,A5,weapon,5,2@,5834.040833,6142.0527425,308.0119095,0,0
1192,8*,1,11,22,61,41,31,52,Abstract_Concrete_6tasks_simseq_2seq_listtask_switchAB_fMRI,509291,51234,32541,5,33,193,B2,vest,2,8*,5834.040833,6151.0532305,317.0123975,0,0
1108,7&,1,11,21,61,42,32,51,Abstract_Concrete_6tasks_simseq_2seq_listtask_switchAB_fMRI,509291,51234,32541,5,34,194,A2,helmet,1,7&,5834.040833,6160.0546409,326.0138079,0,0
1854,7&,1,11,21,62,41,31,51,Abstract_Concrete_6tasks_simseq_2seq_listtask_switchAB_fMRI,509291,51234,32541,5,35,195,B5,helmet,1,7&,5834.040833,6169.0525861,335.0117531,0,0
2189,7&,1,12,21,62,42,32,52,Abstract_Concrete_6tasks_simseq_2seq_listtask_switchAB_fMRI,509291,51234,32541,5,36,196,A2,helmet,1,7&,5834.040833,6178.0522381,344.0114051,0,0
1569,9(,1,12,22,62,42,31,52,Abstract_Concrete_6tasks_simseq_2seq_listtask_switchAB_fMRI,509291,51234,32541,5,37,197,B3,tools,6,9(,5834.040833,6188.0518196,354.0109866,0,0
2315,9(,1,12,21,61,41,32,52,Abstract_Concrete_6tasks_simseq_2seq_listtask_switchAB_fMRI,509291,51234,32541,5,38,198,A1,tools,6,9(,5834.040833,6197.0540137,363.0131807,0,0
3093,2@,1,11,21,62,42,32,51,Abstract_Concrete_6tasks_simseq_2seq_listtask_switchAB_fMRI,509291,51234,32541,5,39,199,B4,weapon,5,2@,5834.040833,6207.052647,373.011814,0,0
1454,9(,1,11,21,61,41,32,52,Abstract_Concrete_6tasks_simseq_2seq_listtask_switchAB_fMRI,509291,51234,32541,5,40,200,A1,tools,6,9(,5834.040833,6218.0521991,384.0113661,0,0
1750,8*,1,12,21,62,42,31,51,Abstract_Concrete_6tasks_simseq_2seq_listtask_switchAB_fMRI,509291,51234,32541,6,1,201,A3,vest,2,8*,6265.309248,6273.3188275,8.00957950000065,0,0
1047,3#,1,12,22,62,41,31,52,Abstract_Concrete_6tasks_simseq_2seq_listtask_switchAB_fMRI,509291,51234,32541,6,2,202,B1,glasses,3,3#,6265.309248,6282.3198494,17.0106014000003,0,0
1366,7&,1,12,21,62,42,31,52,Abstract_Concrete_6tasks_simseq_2seq_listtask_switchAB_fMRI,509291,51234,32541,6,3,203,A2,helmet,1,7&,6265.309248,6291.3219998,26.0127518000008,0,0
1686,7&,1,12,21,62,41,32,51,Abstract_Concrete_6tasks_simseq_2seq_listtask_switchAB_fMRI,509291,51234,32541,6,4,204,B5,helmet,1,7&,6265.309248,6300.3228571,35.0136091000004,0,0
2553,3#,1,11,22,62,41,31,52,Abstract_Concrete_6tasks_simseq_2seq_listtask_switchAB_fMRI,509291,51234,32541,6,5,205,A4,glasses,3,3#,6265.309248,6309.3221093,44.0128613000006,0,0
4419,9(,1,12,22,62,42,31,52,Abstract_Concrete_6tasks_simseq_2seq_listtask_switchAB_fMRI,509291,51234,32541,6,6,206,B3,tools,6,9(,6265.309248,6319.3228943,54.0136463000008,0,0
814,3#,1,12,21,61,42,31,51,Abstract_Concrete_6tasks_simseq_2seq_listtask_switchAB_fMRI,509291,51234,32541,6,7,207,A4,glasses,3,3#,6265.309248,6331.3222374,66.0129894000002,0,0
1546,9(,1,12,22,62,41,32,52,Abstract_Concrete_6tasks_simseq_2seq_listtask_switchAB_fMRI,509291,51234,32541,6,8,208,B3,tools,6,9(,6265.309248,6339.3211991,74.0119511000003,0,0
1795,8*,1,12,21,61,42,32,51,Abstract_Concrete_6tasks_simseq_2seq_listtask_switchAB_fMRI,509291,51234,32541,6,9,209,A3,vest,2,8*,6265.309248,6348.3212239,83.0119759000008,0,0
1659,9(,1,11,21,62,42,32,51,Abstract_Concrete_6tasks_simseq_2seq_listtask_switchAB_fMRI,509291,51234,32541,6,10,210,B3,tools,6,9(,6265.309248,6357.3202495,92.0110015,0,0
2445,7&,1,11,21,61,41,32,52,Abstract_Concrete_6tasks_simseq_2seq_listtask_switchAB_fMRI,509291,51234,32541,6,11,211,A2,helmet,1,7&,6265.309248,6366.3211662,101.011918200001,0,0
2588,2@,1,12,22,62,42,32,51,Abstract_Concrete_6tasks_simseq_2seq_listtask_switchAB_fMRI,509291,51234,32541,6,12,212,B4,weapon,5,2@,6265.309248,6376.3208834,111.0116354,0,0
1599,8*,1,11,21,61,42,31,52,Abstract_Concrete_6tasks_simseq_2seq_listtask_switchAB_fMRI,509291,51234,32541,6,13,213,A3,vest,2,8*,6265.309248,6386.3233823,121.0141343,0,0
1321,7&,1,12,22,61,42,31,51,Abstract_Concrete_6tasks_simseq_2seq_listtask_switchAB_fMRI,509291,51234,32541,6,14,214,B5,helmet,1,7&,6265.309248,6395.320833,130.011585,0,0
2178,8*,1,11,21,62,41,32,51,Abstract_Concrete_6tasks_simseq_2seq_listtask_switchAB_fMRI,509291,51234,32541,6,15,215,A3,vest,2,8*,6265.309248,6404.3214848,139.0122368,0,0
1867,2@,1,12,21,62,42,32,51,Abstract_Concrete_6tasks_simseq_2seq_listtask_switchAB_fMRI,509291,51234,32541,6,16,216,B4,weapon,5,2@,6265.309248,6414.3217341,149.0124861,0,0
1202,2@,1,11,22,62,42,32,52,Abstract_Concrete_6tasks_simseq_2seq_listtask_switchAB_fMRI,509291,51234,32541,6,17,217,A5,weapon,5,2@,6265.309248,6423.3214197,158.0121717,0,0
1382,3#,1,11,21,61,41,32,52,Abstract_Concrete_6tasks_simseq_2seq_listtask_switchAB_fMRI,509291,51234,32541,6,18,218,B1,glasses,3,3#,6265.309248,6432.323374,167.014126,0,0
1691,2@,1,11,21,62,41,31,51,Abstract_Concrete_6tasks_simseq_2seq_listtask_switchAB_fMRI,509291,51234,32541,6,19,219,A5,weapon,5,2@,6265.309248,6441.3216491,176.012401100001,0,0
1044,7&,1,11,22,61,42,32,52,Abstract_Concrete_6tasks_simseq_2seq_listtask_switchAB_fMRI,509291,51234,32541,6,20,220,B5,helmet,1,7&,6265.309248,6450.3208738,185.011625800001,0,0
1095,3#,1,12,21,61,42,32,52,Abstract_Concrete_6tasks_simseq_2seq_listtask_switchAB_fMRI,509291,51234,32541,6,21,221,A4,glasses,3,3#,6265.309248,6459.3205892,194.0113412,0,0
668,2@,1,12,22,62,42,31,52,Abstract_Concrete_6tasks_simseq_2seq_listtask_switchAB_fMRI,509291,51234,32541,6,22,222,B4,weapon,5,2@,6265.309248,6468.3220932,203.012845200001,0,0
1301,9(,1,11,22,62,41,32,51,Abstract_Concrete_6tasks_simseq_2seq_listtask_switchAB_fMRI,509291,51234,32541,6,23,223,A1,tools,6,9(,6265.309248,6476.3210147,211.0117667,0,0
1912,2@,1,11,22,61,42,31,52,Abstract_Concrete_6tasks_simseq_2seq_listtask_switchAB_fMRI,509291,51234,32541,6,24,224,B4,weapon,5,2@,6265.309248,6485.3236222,220.0143742,0,0
1903,7&,1,11,21,61,42,32,51,Abstract_Concrete_6tasks_simseq_2seq_listtask_switchAB_fMRI,509291,51234,32541,6,25,225,A2,helmet,1,7&,6265.309248,6494.319699,229.010451,0,0
1230,8*,1,12,22,61,42,31,52,Abstract_Concrete_6tasks_simseq_2seq_listtask_switchAB_fMRI,509291,51234,32541,6,26,226,B2,vest,2,8*,6265.309248,6503.320454,238.011206,0,0
1240,9(,1,12,22,62,42,31,52,Abstract_Concrete_6tasks_simseq_2seq_listtask_switchAB_fMRI,509291,51234,32541,6,27,227,A1,tools,6,9(,6265.309248,6512.3239781,247.014730100001,0,0
1247,3#,1,12,21,61,42,31,52,Abstract_Concrete_6tasks_simseq_2seq_listtask_switchAB_fMRI,509291,51234,32541,6,28,228,B1,glasses,3,3#,6265.309248,6521.31898,256.009732,0,0
1392,2@,1,11,22,61,41,31,51,Abstract_Concrete_6tasks_simseq_2seq_listtask_switchAB_fMRI,509291,51234,32541,6,29,229,A5,weapon,5,2@,6265.309248,6530.3198709,265.0106229,0,0
1671,9(,1,11,21,62,42,31,51,Abstract_Concrete_6tasks_simseq_2seq_listtask_switchAB_fMRI,509291,51234,32541,6,30,230,B3,tools,6,9(,6265.309248,6539.3209425,274.0116945,0,0
1837,3#,1,12,22,62,42,31,51,Abstract_Concrete_6tasks_simseq_2seq_listtask_switchAB_fMRI,509291,51234,32541,6,31,231,A4,glasses,3,3#,6265.309248,6548.3207775,283.011529500001,0,0
1633,3#,1,11,22,61,42,31,51,Abstract_Concrete_6tasks_simseq_2seq_listtask_switchAB_fMRI,509291,51234,32541,6,32,232,B1,glasses,3,3#,6265.309248,6557.3214526,292.012204600001,0,0
1739,2@,1,11,22,61,41,31,52,Abstract_Concrete_6tasks_simseq_2seq_listtask_switchAB_fMRI,509291,51234,32541,6,33,233,A5,weapon,5,2@,6265.309248,6566.3198699,301.010621900001,0,0
1225,8*,1,12,22,62,42,32,51,Abstract_Concrete_6tasks_simseq_2seq_listtask_switchAB_fMRI,509291,51234,32541,6,34,234,B2,vest,2,8*,6265.309248,6575.3216717,310.0124237,0,0
1794,9(,1,12,22,61,42,31,52,Abstract_Concrete_6tasks_simseq_2seq_listtask_switchAB_fMRI,509291,51234,32541,6,35,235,A1,tools,6,9(,6265.309248,6584.3222284,319.012980400001,0,0
1346,7&,1,11,21,62,42,31,52,Abstract_Concrete_6tasks_simseq_2seq_listtask_switchAB_fMRI,509291,51234,32541,6,36,236,B5,helmet,1,7&,6265.309248,6593.3194033,328.0101553,0,0
1551,9(,1,12,22,61,42,32,51,Abstract_Concrete_6tasks_simseq_2seq_listtask_switchAB_fMRI,509291,51234,32541,6,37,237,A1,tools,6,9(,6265.309248,6602.3210883,337.011840300001,0,0
1139,8*,1,11,21,61,42,31,52,Abstract_Concrete_6tasks_simseq_2seq_listtask_switchAB_fMRI,509291,51234,32541,6,38,238,B2,vest,2,8*,6265.309248,6611.3222301,346.0129821,0,0
1750,7&,1,11,22,62,41,32,51,Abstract_Concrete_6tasks_simseq_2seq_listtask_switchAB_fMRI,509291,51234,32541,6,39,239,A2,helmet,1,7&,6265.309248,6620.3214977,355.0122497,0,0
1003,8*,1,12,21,62,41,31,52,Abstract_Concrete_6tasks_simseq_2seq_listtask_switchAB_fMRI,509291,51234,32541,6,40,240,B2,vest,2,8*,6265.309248,6629.3206112,364.0113632,0,0
