rt1,resp1,correct1,features_1,features_2,features_3,features_4,features_5,features_6,ExpName,subNo,seqA,seqB,block,trial,trialnum,cuetype,task,subtaskcode,corr_resp1,onsetTime_s,onsetTime_cue,onset_cue,onsetTime_cue_fb,onset_cue_fb
5476,9(,1,52,22,31,42,62,12,Abstract_Concrete_6tasks_simseq_2seq_listtask_switchAB_fMRI,555530,42513,15432,1,1,1,B4,glasses,3,9(,3681.7060592,3689.7176876,8.01162840000006,0,0
3294,8*,1,51,21,31,42,62,11,Abstract_Concrete_6tasks_simseq_2seq_listtask_switchAB_fMRI,555530,42513,15432,1,2,2,A2,vest,2,8*,3681.7060592,3702.7168517,21.0107925000002,0,0
4053,2@,1,52,22,31,41,62,11,Abstract_Concrete_6tasks_simseq_2seq_listtask_switchAB_fMRI,555530,42513,15432,1,3,3,B1,helmet,1,2@,3681.7060592,3713.7184777,32.0124185000004,0,0
4543,8*,0,52,22,32,42,62,12,Abstract_Concrete_6tasks_simseq_2seq_listtask_switchAB_fMRI,555530,42513,15432,1,4,4,A5,glasses,3,9(,3681.7060592,3725.7183324,44.0122732,3730.3073217,48.6012625000003
4519,3#,1,51,21,32,42,61,12,Abstract_Concrete_6tasks_simseq_2seq_listtask_switchAB_fMRI,555530,42513,15432,1,5,5,B2,tools,6,3#,3681.7060592,3737.7187577,56.0126985000002,0,0
3463,7&,1,51,22,31,42,62,11,Abstract_Concrete_6tasks_simseq_2seq_listtask_switchAB_fMRI,555530,42513,15432,1,6,6,A1,weapon,5,7&,3681.7060592,3749.7183871,68.0123279000004,0,0
3367,8*,1,52,21,32,42,62,11,Abstract_Concrete_6tasks_simseq_2seq_listtask_switchAB_fMRI,555530,42513,15432,1,7,7,B5,vest,2,8*,3681.7060592,3760.7183034,79.0122442000002,0,0
3429,3#,1,52,22,32,42,62,11,Abstract_Concrete_6tasks_simseq_2seq_listtask_switchAB_fMRI,555530,42513,15432,1,8,8,A3,tools,6,3#,3681.7060592,3771.7196399,90.0135807000001,0,0
4761,7&,1,52,21,32,42,62,11,Abstract_Concrete_6tasks_simseq_2seq_listtask_switchAB_fMRI,555530,42513,15432,1,9,9,B3,weapon,5,7&,3681.7060592,3782.7181354,101.0120762,0,0
0,,0,51,22,31,41,61,11,Abstract_Concrete_6tasks_simseq_2seq_listtask_switchAB_fMRI,555530,42513,15432,1,10,10,A5,glasses,3,9(,3681.7060592,3794.7180753,113.0120161,3803.745376,122.0393168
3207,7&,1,52,21,31,42,61,11,Abstract_Concrete_6tasks_simseq_2seq_listtask_switchAB_fMRI,555530,42513,15432,1,11,11,B3,weapon,5,7&,3681.7060592,3811.7186753,130.0126161,0,0
3755,8*,0,51,21,31,41,62,11,Abstract_Concrete_6tasks_simseq_2seq_listtask_switchAB_fMRI,555530,42513,15432,1,12,12,A5,glasses,3,9(,3681.7060592,3822.7187428,141.0126836,3826.4861877,144.7801285
2384,8*,1,52,22,32,42,62,12,Abstract_Concrete_6tasks_simseq_2seq_listtask_switchAB_fMRI,555530,42513,15432,1,13,13,B5,vest,2,8*,3681.7060592,3833.7183708,152.0123116,0,0
2702,8*,0,51,21,32,42,62,11,Abstract_Concrete_6tasks_simseq_2seq_listtask_switchAB_fMRI,555530,42513,15432,1,14,14,A4,helmet,1,2@,3681.7060592,3843.7180432,162.011984,3846.433409,164.7273498
3014,9(,1,52,21,31,42,62,11,Abstract_Concrete_6tasks_simseq_2seq_listtask_switchAB_fMRI,555530,42513,15432,1,15,15,B4,glasses,3,9(,3681.7060592,3853.7175678,172.0115086,0,0
2515,3#,1,52,21,31,41,61,12,Abstract_Concrete_6tasks_simseq_2seq_listtask_switchAB_fMRI,555530,42513,15432,1,16,16,A3,tools,6,3#,3681.7060592,3864.7186529,183.0125937,0,0
1725,2@,1,52,22,31,41,62,12,Abstract_Concrete_6tasks_simseq_2seq_listtask_switchAB_fMRI,555530,42513,15432,1,17,17,B1,helmet,1,2@,3681.7060592,3874.7163451,193.0102859,0,0
2810,3#,1,51,21,31,41,62,11,Abstract_Concrete_6tasks_simseq_2seq_listtask_switchAB_fMRI,555530,42513,15432,1,18,18,A3,tools,6,3#,3681.7060592,3883.7199865,202.0139273,0,0
5213,9(,1,52,21,31,41,61,12,Abstract_Concrete_6tasks_simseq_2seq_listtask_switchAB_fMRI,555530,42513,15432,1,19,19,B4,glasses,3,9(,3681.7060592,3893.7168554,212.0107962,0,0
2839,7&,1,51,21,31,41,61,11,Abstract_Concrete_6tasks_simseq_2seq_listtask_switchAB_fMRI,555530,42513,15432,1,20,20,A1,weapon,5,7&,3681.7060592,3906.7183328,225.0122736,0,0
3845,9(,1,51,21,31,42,61,11,Abstract_Concrete_6tasks_simseq_2seq_listtask_switchAB_fMRI,555530,42513,15432,1,21,21,B4,glasses,3,9(,3681.7060592,3916.7188355,235.0127763,0,0
2933,8*,1,51,21,32,42,61,11,Abstract_Concrete_6tasks_simseq_2seq_listtask_switchAB_fMRI,555530,42513,15432,1,22,22,A2,vest,2,8*,3681.7060592,3927.7166958,246.0106366,0,0
3879,8*,1,52,21,31,41,61,11,Abstract_Concrete_6tasks_simseq_2seq_listtask_switchAB_fMRI,555530,42513,15432,1,23,23,B5,vest,2,8*,3681.7060592,3937.7166181,256.0105589,0,0
2515,9(,1,52,22,32,42,61,12,Abstract_Concrete_6tasks_simseq_2seq_listtask_switchAB_fMRI,555530,42513,15432,1,24,24,A5,glasses,3,9(,3681.7060592,3948.7217001,267.0156409,0,0
2304,3#,1,52,22,32,41,62,12,Abstract_Concrete_6tasks_simseq_2seq_listtask_switchAB_fMRI,555530,42513,15432,1,25,25,B2,tools,6,3#,3681.7060592,3958.7213628,277.0153036,0,0
2129,2@,1,51,21,31,41,61,11,Abstract_Concrete_6tasks_simseq_2seq_listtask_switchAB_fMRI,555530,42513,15432,1,26,26,A4,helmet,1,2@,3681.7060592,3968.7168316,287.0107724,0,0
2380,7&,0,52,22,32,42,62,11,Abstract_Concrete_6tasks_simseq_2seq_listtask_switchAB_fMRI,555530,42513,15432,1,27,27,B1,helmet,1,2@,3681.7060592,3978.717728,297.0116688,3981.1134492,299.40739
5345,2@,1,51,21,31,42,61,12,Abstract_Concrete_6tasks_simseq_2seq_listtask_switchAB_fMRI,555530,42513,15432,1,28,28,A4,helmet,1,2@,3681.7060592,3988.7169812,307.010922,0,0
3819,7&,1,51,22,31,41,61,12,Abstract_Concrete_6tasks_simseq_2seq_listtask_switchAB_fMRI,555530,42513,15432,1,29,29,B3,weapon,5,7&,3681.7060592,4001.7180633,320.0120041,0,0
1953,7&,1,51,21,32,41,61,12,Abstract_Concrete_6tasks_simseq_2seq_listtask_switchAB_fMRI,555530,42513,15432,1,30,30,A1,weapon,5,7&,3681.7060592,4012.7172808,331.0112216,0,0
3128,8*,1,52,22,32,42,61,11,Abstract_Concrete_6tasks_simseq_2seq_listtask_switchAB_fMRI,555530,42513,15432,1,31,31,B5,vest,2,8*,3681.7060592,4021.7171774,340.0111182,0,0
2940,2@,1,51,22,32,41,61,12,Abstract_Concrete_6tasks_simseq_2seq_listtask_switchAB_fMRI,555530,42513,15432,1,32,32,A4,helmet,1,2@,3681.7060592,4032.7171072,351.011048,0,0
3659,7&,1,52,21,31,41,62,11,Abstract_Concrete_6tasks_simseq_2seq_listtask_switchAB_fMRI,555530,42513,15432,1,33,33,B3,weapon,5,7&,3681.7060592,4042.7171792,361.01112,0,0
2464,8*,1,52,22,32,41,61,11,Abstract_Concrete_6tasks_simseq_2seq_listtask_switchAB_fMRI,555530,42513,15432,1,34,34,A2,vest,2,8*,3681.7060592,4053.7187389,372.0126797,0,0
2251,3#,1,51,22,31,42,62,12,Abstract_Concrete_6tasks_simseq_2seq_listtask_switchAB_fMRI,555530,42513,15432,1,35,35,B2,tools,6,3#,3681.7060592,4063.7196873,382.0136281,0,0
2831,8*,1,52,21,31,42,61,12,Abstract_Concrete_6tasks_simseq_2seq_listtask_switchAB_fMRI,555530,42513,15432,1,36,36,A2,vest,2,8*,3681.7060592,4073.7194605,392.0134013,0,0
1959,2@,1,51,21,32,41,62,11,Abstract_Concrete_6tasks_simseq_2seq_listtask_switchAB_fMRI,555530,42513,15432,1,37,37,B1,helmet,1,2@,3681.7060592,4083.7165512,402.010492,0,0
3943,3#,1,51,22,31,42,61,12,Abstract_Concrete_6tasks_simseq_2seq_listtask_switchAB_fMRI,555530,42513,15432,1,38,38,A3,tools,6,3#,3681.7060592,4092.7163658,411.0103066,0,0
2332,3#,1,51,21,31,42,61,11,Abstract_Concrete_6tasks_simseq_2seq_listtask_switchAB_fMRI,555530,42513,15432,1,39,39,B2,tools,6,3#,3681.7060592,4103.7173811,422.0113219,0,0
1803,7&,1,52,22,32,42,61,12,Abstract_Concrete_6tasks_simseq_2seq_listtask_switchAB_fMRI,555530,42513,15432,1,40,40,A1,weapon,5,7&,3681.7060592,4113.7178561,432.0117969,0,0
2129,2@,1,52,21,32,42,62,11,Abstract_Concrete_6tasks_simseq_2seq_listtask_switchAB_fMRI,555530,42513,15432,2,1,41,A4,helmet,1,2@,4173.7587716,4181.76616475495,8.00739315494866,0,0
2391,8*,1,51,22,31,41,61,11,Abstract_Concrete_6tasks_simseq_2seq_listtask_switchAB_fMRI,555530,42513,15432,2,2,42,B5,vest,2,8*,4173.7587716,4191.76595426689,18.0071826668882,0,0
2576,9(,1,51,22,31,42,62,12,Abstract_Concrete_6tasks_simseq_2seq_listtask_switchAB_fMRI,555530,42513,15432,2,3,43,A5,glasses,3,9(,4173.7587716,4201.7709985,28.0122269000003,0,0
4328,7&,1,51,21,32,42,62,12,Abstract_Concrete_6tasks_simseq_2seq_listtask_switchAB_fMRI,555530,42513,15432,2,4,44,B3,weapon,5,7&,4173.7587716,4211.7691654,38.0103938000002,0,0
1999,7&,1,51,21,31,41,61,11,Abstract_Concrete_6tasks_simseq_2seq_listtask_switchAB_fMRI,555530,42513,15432,2,5,45,A1,weapon,5,7&,4173.7587716,4223.771316,50.0125444000005,0,0
3915,9(,1,51,21,32,41,62,11,Abstract_Concrete_6tasks_simseq_2seq_listtask_switchAB_fMRI,555530,42513,15432,2,6,46,B4,glasses,3,9(,4173.7587716,4233.7716659,60.0128943,0,0
2126,7&,1,51,22,32,42,62,11,Abstract_Concrete_6tasks_simseq_2seq_listtask_switchAB_fMRI,555530,42513,15432,2,7,47,A1,weapon,5,7&,4173.7587716,4244.7694115,71.0106399000006,0,0
1988,7&,1,51,21,31,41,61,12,Abstract_Concrete_6tasks_simseq_2seq_listtask_switchAB_fMRI,555530,42513,15432,2,8,48,B3,weapon,5,7&,4173.7587716,4254.7712085,81.0124369000005,0,0
1203,7&,0,51,21,32,41,62,12,Abstract_Concrete_6tasks_simseq_2seq_listtask_switchAB_fMRI,555530,42513,15432,2,9,49,A4,helmet,1,2@,4173.7587716,4264.770653,91.0118813999998,4265.9886394,92.2298677999997
2573,3#,1,51,21,31,41,61,12,Abstract_Concrete_6tasks_simseq_2seq_listtask_switchAB_fMRI,555530,42513,15432,2,10,50,B2,tools,6,3#,4173.7587716,4273.7693942,100.0106226,0,0
3168,4$,0,52,22,32,41,61,12,Abstract_Concrete_6tasks_simseq_2seq_listtask_switchAB_fMRI,555530,42513,15432,2,11,51,A4,helmet,1,2@,4173.7587716,4283.7699,110.0111284,4286.9493212,113.1905496
3169,9(,1,51,22,32,42,62,11,Abstract_Concrete_6tasks_simseq_2seq_listtask_switchAB_fMRI,555530,42513,15432,2,12,52,B4,glasses,3,9(,4173.7587716,4294.7702924,121.0115208,0,0
4550,8*,1,52,22,31,42,62,12,Abstract_Concrete_6tasks_simseq_2seq_listtask_switchAB_fMRI,555530,42513,15432,2,13,53,A2,vest,2,8*,4173.7587716,4305.7711504,132.0123788,0,0
1868,7&,0,51,22,32,42,62,12,Abstract_Concrete_6tasks_simseq_2seq_listtask_switchAB_fMRI,555530,42513,15432,2,14,54,B1,helmet,1,2@,4173.7587716,4317.7708837,144.0121121,4319.6513741,145.8926025
2317,8*,1,52,22,31,41,62,11,Abstract_Concrete_6tasks_simseq_2seq_listtask_switchAB_fMRI,555530,42513,15432,2,15,55,A2,vest,2,8*,4173.7587716,4326.7687649,153.0099933,0,0
3166,7&,1,51,21,31,41,62,11,Abstract_Concrete_6tasks_simseq_2seq_listtask_switchAB_fMRI,555530,42513,15432,2,16,56,B3,weapon,5,7&,4173.7587716,4336.7706853,163.0119137,0,0
1690,8*,1,51,22,32,41,62,12,Abstract_Concrete_6tasks_simseq_2seq_listtask_switchAB_fMRI,555530,42513,15432,2,17,57,A2,vest,2,8*,4173.7587716,4347.7723314,174.013559800001,0,0
1857,2@,1,51,22,31,42,62,12,Abstract_Concrete_6tasks_simseq_2seq_listtask_switchAB_fMRI,555530,42513,15432,2,18,58,B1,helmet,1,2@,4173.7587716,4356.7722211,183.0134495,0,0
2005,7&,1,52,21,32,42,62,11,Abstract_Concrete_6tasks_simseq_2seq_listtask_switchAB_fMRI,555530,42513,15432,2,19,59,A1,weapon,5,7&,4173.7587716,4365.7694513,192.0106797,0,0
3118,7&,1,51,22,31,42,62,12,Abstract_Concrete_6tasks_simseq_2seq_listtask_switchAB_fMRI,555530,42513,15432,2,20,60,B3,weapon,5,7&,4173.7587716,4375.7721478,202.0133762,0,0
3504,3#,1,52,22,32,41,61,12,Abstract_Concrete_6tasks_simseq_2seq_listtask_switchAB_fMRI,555530,42513,15432,2,21,61,A3,tools,6,3#,4173.7587716,4386.771418,213.0126464,0,0
3021,8*,1,52,21,31,42,61,12,Abstract_Concrete_6tasks_simseq_2seq_listtask_switchAB_fMRI,555530,42513,15432,2,22,62,B5,vest,2,8*,4173.7587716,4397.7701833,224.0114117,0,0
3445,9(,1,51,21,31,42,62,11,Abstract_Concrete_6tasks_simseq_2seq_listtask_switchAB_fMRI,555530,42513,15432,2,23,63,A5,glasses,3,9(,4173.7587716,4408.7702891,235.0115175,0,0
2240,2@,1,51,21,31,42,61,12,Abstract_Concrete_6tasks_simseq_2seq_listtask_switchAB_fMRI,555530,42513,15432,2,24,64,B1,helmet,1,2@,4173.7587716,4419.7717642,246.0129926,0,0
2781,3#,1,52,22,31,41,62,12,Abstract_Concrete_6tasks_simseq_2seq_listtask_switchAB_fMRI,555530,42513,15432,2,25,65,A3,tools,6,3#,4173.7587716,4429.7702963,256.0115247,0,0
2488,3#,1,52,22,31,41,61,11,Abstract_Concrete_6tasks_simseq_2seq_listtask_switchAB_fMRI,555530,42513,15432,2,26,66,B2,tools,6,3#,4173.7587716,4439.7705348,266.0117632,0,0
1899,7&,1,52,22,32,42,62,11,Abstract_Concrete_6tasks_simseq_2seq_listtask_switchAB_fMRI,555530,42513,15432,2,27,67,A1,weapon,5,7&,4173.7587716,4449.7707021,276.0119305,0,0
2603,8*,1,52,22,31,42,61,12,Abstract_Concrete_6tasks_simseq_2seq_listtask_switchAB_fMRI,555530,42513,15432,2,28,68,B5,vest,2,8*,4173.7587716,4458.7702012,285.0114296,0,0
3159,3#,1,51,22,32,41,62,12,Abstract_Concrete_6tasks_simseq_2seq_listtask_switchAB_fMRI,555530,42513,15432,2,29,69,A3,tools,6,3#,4173.7587716,4468.7701812,295.0114096,0,0
3020,9(,1,51,21,31,41,62,11,Abstract_Concrete_6tasks_simseq_2seq_listtask_switchAB_fMRI,555530,42513,15432,2,30,70,B4,glasses,3,9(,4173.7587716,4479.7698181,306.0110465,0,0
3750,3#,1,51,21,32,41,61,12,Abstract_Concrete_6tasks_simseq_2seq_listtask_switchAB_fMRI,555530,42513,15432,2,31,71,A3,tools,6,3#,4173.7587716,4490.7710473,317.0122757,0,0
1504,3#,1,52,22,31,41,62,12,Abstract_Concrete_6tasks_simseq_2seq_listtask_switchAB_fMRI,555530,42513,15432,2,32,72,B2,tools,6,3#,4173.7587716,4501.7689362,328.0101646,0,0
3223,2@,1,51,22,32,42,61,11,Abstract_Concrete_6tasks_simseq_2seq_listtask_switchAB_fMRI,555530,42513,15432,2,33,73,A4,helmet,1,2@,4173.7587716,4510.7717882,337.0130166,0,0
2497,3#,1,52,22,32,41,61,11,Abstract_Concrete_6tasks_simseq_2seq_listtask_switchAB_fMRI,555530,42513,15432,2,34,74,B2,tools,6,3#,4173.7587716,4521.7714,348.0126284,0,0
1958,9(,1,52,21,32,41,62,12,Abstract_Concrete_6tasks_simseq_2seq_listtask_switchAB_fMRI,555530,42513,15432,2,35,75,A5,glasses,3,9(,4173.7587716,4531.7720149,358.0132433,0,0
1800,7&,0,51,22,31,42,62,11,Abstract_Concrete_6tasks_simseq_2seq_listtask_switchAB_fMRI,555530,42513,15432,2,36,76,B1,helmet,1,2@,4173.7587716,4540.7712004,367.012428800001,4542.5833399,368.8245683
2324,8*,1,51,21,32,42,61,12,Abstract_Concrete_6tasks_simseq_2seq_listtask_switchAB_fMRI,555530,42513,15432,2,37,77,A2,vest,2,8*,4173.7587716,4549.768961,376.0101894,0,0
3774,9(,1,51,22,31,41,62,11,Abstract_Concrete_6tasks_simseq_2seq_listtask_switchAB_fMRI,555530,42513,15432,2,38,78,B4,glasses,3,9(,4173.7587716,4559.7704296,386.011658,0,0
2992,8*,0,52,22,31,42,62,12,Abstract_Concrete_6tasks_simseq_2seq_listtask_switchAB_fMRI,555530,42513,15432,2,39,79,A5,glasses,3,9(,4173.7587716,4570.7698877,397.0111161,4573.7757676,400.016996
3249,8*,1,52,21,31,41,61,11,Abstract_Concrete_6tasks_simseq_2seq_listtask_switchAB_fMRI,555530,42513,15432,2,40,80,B5,vest,2,8*,4173.7587716,4581.7700517,408.0112801,0,0
2169,2@,1,51,21,32,42,61,11,Abstract_Concrete_6tasks_simseq_2seq_listtask_switchAB_fMRI,555530,42513,15432,3,1,81,B1,helmet,1,2@,4650.3614394,4658.3721035,8.01066410000021,0,0
1215,7&,1,52,21,31,42,61,12,Abstract_Concrete_6tasks_simseq_2seq_listtask_switchAB_fMRI,555530,42513,15432,3,2,82,A1,weapon,5,7&,4650.3614394,4668.3723419,18.0109025000002,0,0
4549,7&,1,51,21,31,42,62,11,Abstract_Concrete_6tasks_simseq_2seq_listtask_switchAB_fMRI,555530,42513,15432,3,3,83,B3,weapon,5,7&,4650.3614394,4677.3713858,27.0099464000004,0,0
2154,2@,1,51,22,31,42,61,12,Abstract_Concrete_6tasks_simseq_2seq_listtask_switchAB_fMRI,555530,42513,15432,3,4,84,A4,helmet,1,2@,4650.3614394,4689.3727924,39.0113530000008,0,0
1380,2@,1,51,21,31,42,62,12,Abstract_Concrete_6tasks_simseq_2seq_listtask_switchAB_fMRI,555530,42513,15432,3,5,85,B1,helmet,1,2@,4650.3614394,4699.3735583,49.0121189000001,0,0
4945,9(,1,52,21,31,41,61,11,Abstract_Concrete_6tasks_simseq_2seq_listtask_switchAB_fMRI,555530,42513,15432,3,6,86,A5,glasses,3,9(,4650.3614394,4708.3729138,58.0114744000002,0,0
1613,8*,1,52,21,31,41,62,11,Abstract_Concrete_6tasks_simseq_2seq_listtask_switchAB_fMRI,555530,42513,15432,3,7,87,B5,vest,2,8*,4650.3614394,4720.3727415,70.0113021000006,0,0
1865,9(,1,51,22,32,42,61,12,Abstract_Concrete_6tasks_simseq_2seq_listtask_switchAB_fMRI,555530,42513,15432,3,8,88,A5,glasses,3,9(,4650.3614394,4729.3748107,79.0133713000005,0,0
2074,3#,1,51,22,31,42,62,12,Abstract_Concrete_6tasks_simseq_2seq_listtask_switchAB_fMRI,555530,42513,15432,3,9,89,B2,tools,6,3#,4650.3614394,4738.372919,88.0114796000007,0,0
2222,3#,1,52,22,31,41,61,11,Abstract_Concrete_6tasks_simseq_2seq_listtask_switchAB_fMRI,555530,42513,15432,3,10,90,A3,tools,6,3#,4650.3614394,4748.3753144,98.0138750000006,0,0
3121,7&,1,52,21,32,42,61,11,Abstract_Concrete_6tasks_simseq_2seq_listtask_switchAB_fMRI,555530,42513,15432,3,11,91,B3,weapon,5,7&,4650.3614394,4758.3748379,108.0133985,0,0
3143,9(,1,52,22,32,41,61,11,Abstract_Concrete_6tasks_simseq_2seq_listtask_switchAB_fMRI,555530,42513,15432,3,12,92,A5,glasses,3,9(,4650.3614394,4769.3745173,119.0130779,0,0
1932,3#,1,51,21,31,41,62,11,Abstract_Concrete_6tasks_simseq_2seq_listtask_switchAB_fMRI,555530,42513,15432,3,13,93,B2,tools,6,3#,4650.3614394,4780.3729308,130.011491400001,0,0
2933,8*,1,52,21,31,41,62,12,Abstract_Concrete_6tasks_simseq_2seq_listtask_switchAB_fMRI,555530,42513,15432,3,14,94,A2,vest,2,8*,4650.3614394,4789.3721303,139.010690900001,0,0
2403,9(,1,52,21,31,42,61,11,Abstract_Concrete_6tasks_simseq_2seq_listtask_switchAB_fMRI,555530,42513,15432,3,15,95,B4,glasses,3,9(,4650.3614394,4799.3729676,149.011528200001,0,0
4052,3#,1,52,21,32,41,62,12,Abstract_Concrete_6tasks_simseq_2seq_listtask_switchAB_fMRI,555530,42513,15432,3,16,96,A3,tools,6,3#,4650.3614394,4809.37543,159.0139906,0,0
1692,2@,1,51,21,31,41,62,12,Abstract_Concrete_6tasks_simseq_2seq_listtask_switchAB_fMRI,555530,42513,15432,3,17,97,B1,helmet,1,2@,4650.3614394,4821.3743102,171.0128708,0,0
2578,7&,1,51,21,31,41,62,12,Abstract_Concrete_6tasks_simseq_2seq_listtask_switchAB_fMRI,555530,42513,15432,3,18,98,A1,weapon,5,7&,4650.3614394,4830.3731035,180.0116641,0,0
2506,9(,1,52,22,31,41,61,12,Abstract_Concrete_6tasks_simseq_2seq_listtask_switchAB_fMRI,555530,42513,15432,3,19,99,B4,glasses,3,9(,4650.3614394,4840.3740342,190.0125948,0,0
1721,7&,1,51,22,31,41,61,11,Abstract_Concrete_6tasks_simseq_2seq_listtask_switchAB_fMRI,555530,42513,15432,3,20,100,A1,weapon,5,7&,4650.3614394,4850.37272,200.011280600001,0,0
3606,3#,1,52,22,31,42,62,12,Abstract_Concrete_6tasks_simseq_2seq_listtask_switchAB_fMRI,555530,42513,15432,3,21,101,B2,tools,6,3#,4650.3614394,4859.3726663,209.0112269,0,0
3425,2@,1,52,22,31,41,61,11,Abstract_Concrete_6tasks_simseq_2seq_listtask_switchAB_fMRI,555530,42513,15432,3,22,102,A4,helmet,1,2@,4650.3614394,4870.3727401,220.0113007,0,0
3261,8*,1,52,22,31,41,62,12,Abstract_Concrete_6tasks_simseq_2seq_listtask_switchAB_fMRI,555530,42513,15432,3,23,103,B5,vest,2,8*,4650.3614394,4881.3729972,231.0115578,0,0
2268,8*,1,52,22,32,42,62,11,Abstract_Concrete_6tasks_simseq_2seq_listtask_switchAB_fMRI,555530,42513,15432,3,24,104,A2,vest,2,8*,4650.3614394,4892.3741831,242.0127437,0,0
3643,7&,1,51,22,32,42,62,12,Abstract_Concrete_6tasks_simseq_2seq_listtask_switchAB_fMRI,555530,42513,15432,3,25,105,B3,weapon,5,7&,4650.3614394,4902.3748009,252.0133615,0,0
3754,2@,1,51,21,31,41,62,12,Abstract_Concrete_6tasks_simseq_2seq_listtask_switchAB_fMRI,555530,42513,15432,3,26,106,A4,helmet,1,2@,4650.3614394,4913.3727208,263.0112814,0,0
2991,9(,1,51,22,31,41,61,12,Abstract_Concrete_6tasks_simseq_2seq_listtask_switchAB_fMRI,555530,42513,15432,3,27,107,B4,glasses,3,9(,4650.3614394,4924.372846,274.011406600001,0,0
1705,7&,1,51,21,32,41,62,12,Abstract_Concrete_6tasks_simseq_2seq_listtask_switchAB_fMRI,555530,42513,15432,3,28,108,A1,weapon,5,7&,4650.3614394,4935.3733439,285.0119045,0,0
2086,8*,1,52,22,32,42,61,11,Abstract_Concrete_6tasks_simseq_2seq_listtask_switchAB_fMRI,555530,42513,15432,3,29,109,B5,vest,2,8*,4650.3614394,4944.3730291,294.011589700001,0,0
3281,3#,1,51,21,32,42,61,11,Abstract_Concrete_6tasks_simseq_2seq_listtask_switchAB_fMRI,555530,42513,15432,3,30,110,A3,tools,6,3#,4650.3614394,4954.3736927,304.0122533,0,0
2301,3#,1,51,22,32,41,61,12,Abstract_Concrete_6tasks_simseq_2seq_listtask_switchAB_fMRI,555530,42513,15432,3,31,111,B2,tools,6,3#,4650.3614394,4965.3749835,315.0135441,0,0
3033,9(,1,51,21,31,41,62,11,Abstract_Concrete_6tasks_simseq_2seq_listtask_switchAB_fMRI,555530,42513,15432,3,32,112,A5,glasses,3,9(,4650.3614394,4975.3747688,325.013329400001,0,0
1637,8*,1,51,22,32,42,62,11,Abstract_Concrete_6tasks_simseq_2seq_listtask_switchAB_fMRI,555530,42513,15432,3,33,113,B5,vest,2,8*,4650.3614394,4986.3749821,336.0135427,0,0
3271,8*,1,51,21,31,41,61,11,Abstract_Concrete_6tasks_simseq_2seq_listtask_switchAB_fMRI,555530,42513,15432,3,34,114,A2,vest,2,8*,4650.3614394,4995.3732438,345.0118044,0,0
2072,7&,1,52,21,31,41,62,12,Abstract_Concrete_6tasks_simseq_2seq_listtask_switchAB_fMRI,555530,42513,15432,3,35,115,B3,weapon,5,7&,4650.3614394,5006.3728667,356.0114273,0,0
1984,8*,1,51,22,31,42,61,12,Abstract_Concrete_6tasks_simseq_2seq_listtask_switchAB_fMRI,555530,42513,15432,3,36,116,A2,vest,2,8*,4650.3614394,5016.3735138,366.012074400001,0,0
2231,9(,1,51,21,32,41,62,12,Abstract_Concrete_6tasks_simseq_2seq_listtask_switchAB_fMRI,555530,42513,15432,3,37,117,B4,glasses,3,9(,4650.3614394,5025.3743787,375.012939300001,0,0
2629,3#,1,52,22,32,41,61,12,Abstract_Concrete_6tasks_simseq_2seq_listtask_switchAB_fMRI,555530,42513,15432,3,38,118,A3,tools,6,3#,4650.3614394,5035.3722003,385.010760900001,0,0
1407,2@,1,51,21,32,41,61,12,Abstract_Concrete_6tasks_simseq_2seq_listtask_switchAB_fMRI,555530,42513,15432,3,39,119,B1,helmet,1,2@,4650.3614394,5045.3726134,395.011174,0,0
2785,2@,1,51,21,32,42,62,12,Abstract_Concrete_6tasks_simseq_2seq_listtask_switchAB_fMRI,555530,42513,15432,3,40,120,A4,helmet,1,2@,4650.3614394,5054.3710037,404.0095643,0,0
2099,8*,1,52,21,32,41,62,12,Abstract_Concrete_6tasks_simseq_2seq_listtask_switchAB_fMRI,555530,42513,15432,4,1,121,A2,vest,2,8*,5253.635792,5261.64315055451,8.00735855450694,0,0
2318,7&,1,52,22,32,41,61,12,Abstract_Concrete_6tasks_simseq_2seq_listtask_switchAB_fMRI,555530,42513,15432,4,2,122,B3,weapon,5,7&,5253.635792,5271.64287247462,18.0070804746174,0,0
1523,8*,1,52,22,31,42,61,12,Abstract_Concrete_6tasks_simseq_2seq_listtask_switchAB_fMRI,555530,42513,15432,4,3,123,A2,vest,2,8*,5253.635792,5281.64269952164,28.0069075216416,0,0
1479,3#,1,51,22,31,42,62,11,Abstract_Concrete_6tasks_simseq_2seq_listtask_switchAB_fMRI,555530,42513,15432,4,4,124,B2,tools,6,3#,5253.635792,5290.6485325,37.0127405000003,0,0
1887,9(,1,51,22,32,41,61,11,Abstract_Concrete_6tasks_simseq_2seq_listtask_switchAB_fMRI,555530,42513,15432,4,5,125,A5,glasses,3,9(,5253.635792,5299.6466521,46.0108601000002,0,0
2415,2@,1,52,21,31,41,61,12,Abstract_Concrete_6tasks_simseq_2seq_listtask_switchAB_fMRI,555530,42513,15432,4,6,126,B1,helmet,1,2@,5253.635792,5308.6467085,55.0109165000003,0,0
3296,2@,1,52,22,32,41,61,12,Abstract_Concrete_6tasks_simseq_2seq_listtask_switchAB_fMRI,555530,42513,15432,4,7,127,A4,helmet,1,2@,5253.635792,5318.6491077,65.0133157,0,0
1956,7&,1,52,22,32,41,62,11,Abstract_Concrete_6tasks_simseq_2seq_listtask_switchAB_fMRI,555530,42513,15432,4,8,128,B3,weapon,5,7&,5253.635792,5329.6482713,76.0124792999995,0,0
1422,9(,0,51,22,31,41,61,11,Abstract_Concrete_6tasks_simseq_2seq_listtask_switchAB_fMRI,555530,42513,15432,4,9,129,A4,helmet,1,2@,5253.635792,5338.646171,85.0103790000003,5340.0839116,86.4481195999997
2931,2@,1,51,21,32,42,61,11,Abstract_Concrete_6tasks_simseq_2seq_listtask_switchAB_fMRI,555530,42513,15432,4,10,130,B1,helmet,1,2@,5253.635792,5347.6469268,94.0111348,0,0
2359,9(,1,52,21,31,42,62,11,Abstract_Concrete_6tasks_simseq_2seq_listtask_switchAB_fMRI,555530,42513,15432,4,11,131,A5,glasses,3,9(,5253.635792,5357.6470971,104.0113051,0,0
2182,8*,1,51,21,32,42,61,12,Abstract_Concrete_6tasks_simseq_2seq_listtask_switchAB_fMRI,555530,42513,15432,4,12,132,B5,vest,2,8*,5253.635792,5367.6477889,114.0119969,0,0
1456,3#,1,51,22,31,42,62,12,Abstract_Concrete_6tasks_simseq_2seq_listtask_switchAB_fMRI,555530,42513,15432,4,13,133,A3,tools,6,3#,5253.635792,5377.6475076,124.0117156,0,0
1694,3#,1,51,21,32,42,62,11,Abstract_Concrete_6tasks_simseq_2seq_listtask_switchAB_fMRI,555530,42513,15432,4,14,134,B2,tools,6,3#,5253.635792,5386.6487252,133.0129332,0,0
1987,3#,1,51,22,31,42,61,11,Abstract_Concrete_6tasks_simseq_2seq_listtask_switchAB_fMRI,555530,42513,15432,4,15,135,A3,tools,6,3#,5253.635792,5395.6493983,142.0136063,0,0
2066,9(,1,51,22,31,42,62,11,Abstract_Concrete_6tasks_simseq_2seq_listtask_switchAB_fMRI,555530,42513,15432,4,16,136,B4,glasses,3,9(,5253.635792,5405.6486912,152.0128992,0,0
2039,8*,1,51,21,32,42,62,11,Abstract_Concrete_6tasks_simseq_2seq_listtask_switchAB_fMRI,555530,42513,15432,4,17,137,A2,vest,2,8*,5253.635792,5415.6472681,162.0114761,0,0
1099,2@,1,51,22,31,42,62,11,Abstract_Concrete_6tasks_simseq_2seq_listtask_switchAB_fMRI,555530,42513,15432,4,18,138,B1,helmet,1,2@,5253.635792,5425.6494452,172.0136532,0,0
1454,7&,1,51,22,32,42,62,12,Abstract_Concrete_6tasks_simseq_2seq_listtask_switchAB_fMRI,555530,42513,15432,4,19,139,A1,weapon,5,7&,5253.635792,5434.6486346,181.0128426,0,0
1480,3#,1,51,22,32,41,61,12,Abstract_Concrete_6tasks_simseq_2seq_listtask_switchAB_fMRI,555530,42513,15432,4,20,140,B2,tools,6,3#,5253.635792,5443.648266,190.012474,0,0
1749,9(,1,52,21,32,41,61,11,Abstract_Concrete_6tasks_simseq_2seq_listtask_switchAB_fMRI,555530,42513,15432,4,21,141,A5,glasses,3,9(,5253.635792,5452.6478587,199.0120667,0,0
3157,8*,1,52,22,32,41,62,12,Abstract_Concrete_6tasks_simseq_2seq_listtask_switchAB_fMRI,555530,42513,15432,4,22,142,B5,vest,2,8*,5253.635792,5461.6489823,208.0131903,0,0
1846,8*,1,51,22,31,41,61,12,Abstract_Concrete_6tasks_simseq_2seq_listtask_switchAB_fMRI,555530,42513,15432,4,23,143,A2,vest,2,8*,5253.635792,5472.6499152,219.0141232,0,0
3191,8*,1,52,22,32,41,62,11,Abstract_Concrete_6tasks_simseq_2seq_listtask_switchAB_fMRI,555530,42513,15432,4,24,144,B5,vest,2,8*,5253.635792,5481.6462484,228.0104564,0,0
1820,3#,1,51,22,31,41,62,12,Abstract_Concrete_6tasks_simseq_2seq_listtask_switchAB_fMRI,555530,42513,15432,4,25,145,A3,tools,6,3#,5253.635792,5492.6481826,239.0123906,0,0
1278,3#,1,52,22,31,42,62,12,Abstract_Concrete_6tasks_simseq_2seq_listtask_switchAB_fMRI,555530,42513,15432,4,26,146,B2,tools,6,3#,5253.635792,5501.6467985,248.0110065,0,0
999,7&,1,51,22,31,42,62,12,Abstract_Concrete_6tasks_simseq_2seq_listtask_switchAB_fMRI,555530,42513,15432,4,27,147,A1,weapon,5,7&,5253.635792,5510.6474346,257.0116426,0,0
2373,9(,1,51,22,31,41,62,12,Abstract_Concrete_6tasks_simseq_2seq_listtask_switchAB_fMRI,555530,42513,15432,4,28,148,B4,glasses,3,9(,5253.635792,5519.6489335,266.0131415,0,0
3394,9(,1,51,21,32,42,61,12,Abstract_Concrete_6tasks_simseq_2seq_listtask_switchAB_fMRI,555530,42513,15432,4,29,149,A5,glasses,3,9(,5253.635792,5529.6462718,276.0104798,0,0
1616,9(,1,52,21,31,42,61,11,Abstract_Concrete_6tasks_simseq_2seq_listtask_switchAB_fMRI,555530,42513,15432,4,30,150,B4,glasses,3,9(,5253.635792,5540.6473009,287.0115089,0,0
1432,3#,1,52,21,32,41,61,12,Abstract_Concrete_6tasks_simseq_2seq_listtask_switchAB_fMRI,555530,42513,15432,4,31,151,A3,tools,6,3#,5253.635792,5549.6475457,296.0117537,0,0
1283,8*,1,51,22,32,41,61,12,Abstract_Concrete_6tasks_simseq_2seq_listtask_switchAB_fMRI,555530,42513,15432,4,32,152,B5,vest,2,8*,5253.635792,5558.6462934,305.0105014,0,0
2010,7&,1,52,21,31,42,61,11,Abstract_Concrete_6tasks_simseq_2seq_listtask_switchAB_fMRI,555530,42513,15432,4,33,153,A1,weapon,5,7&,5253.635792,5567.6485791,314.0127871,0,0
1333,7&,0,52,22,32,42,61,12,Abstract_Concrete_6tasks_simseq_2seq_listtask_switchAB_fMRI,555530,42513,15432,4,34,154,B1,helmet,1,2@,5253.635792,5577.6464979,324.0107059,5578.9898592,325.3540672
2657,2@,1,51,22,31,41,62,12,Abstract_Concrete_6tasks_simseq_2seq_listtask_switchAB_fMRI,555530,42513,15432,4,35,155,A4,helmet,1,2@,5253.635792,5586.6467247,333.0109327,0,0
1683,9(,1,52,21,32,42,61,12,Abstract_Concrete_6tasks_simseq_2seq_listtask_switchAB_fMRI,555530,42513,15432,4,36,156,B4,glasses,3,9(,5253.635792,5596.6486944,343.0129024,0,0
2148,2@,1,51,22,31,42,61,11,Abstract_Concrete_6tasks_simseq_2seq_listtask_switchAB_fMRI,555530,42513,15432,4,37,157,A4,helmet,1,2@,5253.635792,5605.648234,352.012442,0,0
2911,7&,1,52,22,32,41,62,11,Abstract_Concrete_6tasks_simseq_2seq_listtask_switchAB_fMRI,555530,42513,15432,4,38,158,B3,weapon,5,7&,5253.635792,5615.6476162,362.0118242,0,0
2129,7&,1,52,21,32,42,61,12,Abstract_Concrete_6tasks_simseq_2seq_listtask_switchAB_fMRI,555530,42513,15432,4,39,159,A1,weapon,5,7&,5253.635792,5625.6469254,372.0111334,0,0
2707,7&,1,52,21,31,42,62,12,Abstract_Concrete_6tasks_simseq_2seq_listtask_switchAB_fMRI,555530,42513,15432,4,40,160,B3,weapon,5,7&,5253.635792,5635.6477671,382.0119751,0,0
3235,9(,1,52,22,31,41,62,12,Abstract_Concrete_6tasks_simseq_2seq_listtask_switchAB_fMRI,555530,42513,15432,5,1,161,A5,glasses,3,9(,5695.7789417,5703.7916684,8.0127266999998,0,0
3789,7&,1,51,21,32,41,61,11,Abstract_Concrete_6tasks_simseq_2seq_listtask_switchAB_fMRI,555530,42513,15432,5,2,162,B3,weapon,5,7&,5695.7789417,5714.7896873,19.0107455999996,0,0
1140,9(,0,52,22,31,42,61,12,Abstract_Concrete_6tasks_simseq_2seq_listtask_switchAB_fMRI,555530,42513,15432,5,3,163,A4,helmet,1,2@,5695.7789417,5725.8017184,30.0227766999997,5726.9641771,31.1852353999993
2116,3#,1,51,21,31,42,61,12,Abstract_Concrete_6tasks_simseq_2seq_listtask_switchAB_fMRI,555530,42513,15432,5,4,164,B2,tools,6,3#,5695.7789417,5734.8047736,39.0258318999995,0,0
1321,7&,1,52,22,31,41,62,11,Abstract_Concrete_6tasks_simseq_2seq_listtask_switchAB_fMRI,555530,42513,15432,5,5,165,A1,weapon,5,7&,5695.7789417,5744.7911003,49.0121585999996,0,0
2308,7&,1,51,21,32,42,61,11,Abstract_Concrete_6tasks_simseq_2seq_listtask_switchAB_fMRI,555530,42513,15432,5,6,166,B3,weapon,5,7&,5695.7789417,5753.7926215,58.0136797999994,0,0
2537,9(,1,51,22,31,41,61,12,Abstract_Concrete_6tasks_simseq_2seq_listtask_switchAB_fMRI,555530,42513,15432,5,7,167,A5,glasses,3,9(,5695.7789417,5763.7901651,68.0112233999998,0,0
1892,2@,1,51,21,31,42,61,11,Abstract_Concrete_6tasks_simseq_2seq_listtask_switchAB_fMRI,555530,42513,15432,5,8,168,B1,helmet,1,2@,5695.7789417,5773.791107,78.0121652999997,0,0
1064,7&,1,51,21,32,42,61,12,Abstract_Concrete_6tasks_simseq_2seq_listtask_switchAB_fMRI,555530,42513,15432,5,9,169,A1,weapon,5,7&,5695.7789417,5782.792151,87.0132092999993,0,0
1529,2@,1,52,21,32,42,61,11,Abstract_Concrete_6tasks_simseq_2seq_listtask_switchAB_fMRI,555530,42513,15432,5,10,170,B1,helmet,1,2@,5695.7789417,5791.7914182,96.0124765,0,0
1897,8*,1,51,22,32,41,62,11,Abstract_Concrete_6tasks_simseq_2seq_listtask_switchAB_fMRI,555530,42513,15432,5,11,171,A2,vest,2,8*,5695.7789417,5800.7921094,105.0131677,0,0
2119,8*,1,51,21,32,42,61,12,Abstract_Concrete_6tasks_simseq_2seq_listtask_switchAB_fMRI,555530,42513,15432,5,12,172,B5,vest,2,8*,5695.7789417,5809.7903868,114.0114451,0,0
1714,2@,1,52,22,31,42,61,11,Abstract_Concrete_6tasks_simseq_2seq_listtask_switchAB_fMRI,555530,42513,15432,5,13,173,A4,helmet,1,2@,5695.7789417,5819.7908028,124.0118611,0,0
3195,8*,1,51,21,32,41,61,12,Abstract_Concrete_6tasks_simseq_2seq_listtask_switchAB_fMRI,555530,42513,15432,5,14,174,B5,vest,2,8*,5695.7789417,5828.7917336,133.0127919,0,0
1661,8*,1,52,21,31,41,61,12,Abstract_Concrete_6tasks_simseq_2seq_listtask_switchAB_fMRI,555530,42513,15432,5,15,175,A2,vest,2,8*,5695.7789417,5839.7928874,144.0139457,0,0
1644,2@,1,52,22,31,41,62,11,Abstract_Concrete_6tasks_simseq_2seq_listtask_switchAB_fMRI,555530,42513,15432,5,16,176,B1,helmet,1,2@,5695.7789417,5848.7924716,153.013529899999,0,0
1272,7&,1,51,22,31,42,62,12,Abstract_Concrete_6tasks_simseq_2seq_listtask_switchAB_fMRI,555530,42513,15432,5,17,177,A1,weapon,5,7&,5695.7789417,5857.7915728,162.012631099999,0,0
2262,3#,1,51,21,31,41,62,11,Abstract_Concrete_6tasks_simseq_2seq_listtask_switchAB_fMRI,555530,42513,15432,5,18,178,B2,tools,6,3#,5695.7789417,5866.7909536,171.012011899999,0,0
2629,9(,1,51,21,32,42,62,11,Abstract_Concrete_6tasks_simseq_2seq_listtask_switchAB_fMRI,555530,42513,15432,5,19,179,A5,glasses,3,9(,5695.7789417,5876.7902047,181.011262999999,0,0
2695,7&,1,51,22,32,42,62,12,Abstract_Concrete_6tasks_simseq_2seq_listtask_switchAB_fMRI,555530,42513,15432,5,20,180,B3,weapon,5,7&,5695.7789417,5886.7910592,191.012117499999,0,0
2096,7&,1,52,22,32,42,61,11,Abstract_Concrete_6tasks_simseq_2seq_listtask_switchAB_fMRI,555530,42513,15432,5,21,181,A1,weapon,5,7&,5695.7789417,5896.7920477,201.013105999999,0,0
2588,9(,1,51,22,31,42,61,12,Abstract_Concrete_6tasks_simseq_2seq_listtask_switchAB_fMRI,555530,42513,15432,5,22,182,B4,glasses,3,9(,5695.7789417,5906.7913647,211.012422999999,0,0
2458,3#,1,52,21,32,42,62,12,Abstract_Concrete_6tasks_simseq_2seq_listtask_switchAB_fMRI,555530,42513,15432,5,23,183,A3,tools,6,3#,5695.7789417,5916.7903532,221.0114115,0,0
2380,7&,1,51,21,31,41,62,12,Abstract_Concrete_6tasks_simseq_2seq_listtask_switchAB_fMRI,555530,42513,15432,5,24,184,B3,weapon,5,7&,5695.7789417,5926.7908398,231.0118981,0,0
1364,3#,1,52,22,32,41,62,11,Abstract_Concrete_6tasks_simseq_2seq_listtask_switchAB_fMRI,555530,42513,15432,5,25,185,A3,tools,6,3#,5695.7789417,5936.7905056,241.0115639,0,0
1246,3#,1,51,22,31,42,62,11,Abstract_Concrete_6tasks_simseq_2seq_listtask_switchAB_fMRI,555530,42513,15432,5,26,186,B2,tools,6,3#,5695.7789417,5945.7923802,250.013438499999,0,0
2857,3#,1,52,21,32,42,62,12,Abstract_Concrete_6tasks_simseq_2seq_listtask_switchAB_fMRI,555530,42513,15432,5,27,187,A3,tools,6,3#,5695.7789417,5954.7909825,259.012040799999,0,0
1355,8*,1,52,22,32,41,62,12,Abstract_Concrete_6tasks_simseq_2seq_listtask_switchAB_fMRI,555530,42513,15432,5,28,188,B5,vest,2,8*,5695.7789417,5964.789215,269.010273299999,0,0
2408,8*,1,51,21,32,42,62,11,Abstract_Concrete_6tasks_simseq_2seq_listtask_switchAB_fMRI,555530,42513,15432,5,29,189,A2,vest,2,8*,5695.7789417,5973.7918817,278.01294,0,0
3565,9(,1,51,21,31,41,61,12,Abstract_Concrete_6tasks_simseq_2seq_listtask_switchAB_fMRI,555530,42513,15432,5,30,190,B4,glasses,3,9(,5695.7789417,5983.790745,288.0118033,0,0
1620,8*,1,51,22,31,42,61,12,Abstract_Concrete_6tasks_simseq_2seq_listtask_switchAB_fMRI,555530,42513,15432,5,31,191,A2,vest,2,8*,5695.7789417,5994.791943,299.0130013,0,0
1900,9(,1,51,22,32,42,62,11,Abstract_Concrete_6tasks_simseq_2seq_listtask_switchAB_fMRI,555530,42513,15432,5,32,192,B4,glasses,3,9(,5695.7789417,6003.7924915,308.0135498,0,0
2270,3#,1,52,21,32,41,61,12,Abstract_Concrete_6tasks_simseq_2seq_listtask_switchAB_fMRI,555530,42513,15432,5,33,193,A3,tools,6,3#,5695.7789417,6012.7916576,317.012715899999,0,0
1203,8*,1,51,21,32,42,61,11,Abstract_Concrete_6tasks_simseq_2seq_listtask_switchAB_fMRI,555530,42513,15432,5,34,194,B5,vest,2,8*,5695.7789417,6022.7906341,327.011692399999,0,0
3053,2@,1,51,22,31,41,62,11,Abstract_Concrete_6tasks_simseq_2seq_listtask_switchAB_fMRI,555530,42513,15432,5,35,195,A4,helmet,1,2@,5695.7789417,6031.7924416,336.013499899999,0,0
2606,3#,1,51,22,32,41,61,11,Abstract_Concrete_6tasks_simseq_2seq_listtask_switchAB_fMRI,555530,42513,15432,5,36,196,B2,tools,6,3#,5695.7789417,6042.7913489,347.0124072,0,0
2071,9(,1,51,22,31,41,62,11,Abstract_Concrete_6tasks_simseq_2seq_listtask_switchAB_fMRI,555530,42513,15432,5,37,197,A5,glasses,3,9(,5695.7789417,6052.7901581,357.011216399999,0,0
2037,2@,0,52,22,32,42,61,11,Abstract_Concrete_6tasks_simseq_2seq_listtask_switchAB_fMRI,555530,42513,15432,5,38,198,B4,glasses,3,9(,5695.7789417,6062.7908295,367.011887799999,6064.8423966,369.0634549
1726,2@,1,52,22,31,42,61,11,Abstract_Concrete_6tasks_simseq_2seq_listtask_switchAB_fMRI,555530,42513,15432,5,39,199,A4,helmet,1,2@,5695.7789417,6072.7901749,377.0112332,0,0
1282,2@,1,52,22,32,41,62,12,Abstract_Concrete_6tasks_simseq_2seq_listtask_switchAB_fMRI,555530,42513,15432,5,40,200,B1,helmet,1,2@,5695.7789417,6081.7893744,386.0104327,0,0
2852,8*,1,51,22,32,42,62,11,Abstract_Concrete_6tasks_simseq_2seq_listtask_switchAB_fMRI,555530,42513,15432,6,1,201,A2,vest,2,8*,6135.1741593,6143.1842613,8.01010200000019,0,0
1975,9(,1,51,21,31,41,62,11,Abstract_Concrete_6tasks_simseq_2seq_listtask_switchAB_fMRI,555530,42513,15432,6,2,202,B4,glasses,3,9(,6135.1741593,6153.1838599,18.0097006000005,0,0
3716,9(,1,51,22,31,42,61,12,Abstract_Concrete_6tasks_simseq_2seq_listtask_switchAB_fMRI,555530,42513,15432,6,3,203,A5,glasses,3,9(,6135.1741593,6162.186151,27.0119917000002,0,0
1278,3#,1,51,22,32,42,61,11,Abstract_Concrete_6tasks_simseq_2seq_listtask_switchAB_fMRI,555530,42513,15432,6,4,204,B2,tools,6,3#,6135.1741593,6173.1853474,38.0111881000003,0,0
1073,7&,1,52,22,32,41,61,11,Abstract_Concrete_6tasks_simseq_2seq_listtask_switchAB_fMRI,555530,42513,15432,6,5,205,A1,weapon,5,7&,6135.1741593,6182.1878025,47.0136431999999,0,0
1343,8*,1,51,21,32,42,61,11,Abstract_Concrete_6tasks_simseq_2seq_listtask_switchAB_fMRI,555530,42513,15432,6,6,206,B5,vest,2,8*,6135.1741593,6191.1883131,56.0141538000007,0,0
1530,8*,1,51,21,32,42,62,11,Abstract_Concrete_6tasks_simseq_2seq_listtask_switchAB_fMRI,555530,42513,15432,6,7,207,A2,vest,2,8*,6135.1741593,6200.18755,65.0133906999999,0,0
2341,7&,1,51,22,32,42,61,12,Abstract_Concrete_6tasks_simseq_2seq_listtask_switchAB_fMRI,555530,42513,15432,6,8,208,B3,weapon,5,7&,6135.1741593,6209.1879018,74.0137425000003,0,0
1403,2@,1,52,22,31,42,62,11,Abstract_Concrete_6tasks_simseq_2seq_listtask_switchAB_fMRI,555530,42513,15432,6,9,209,A4,helmet,1,2@,6135.1741593,6219.1872439,84.0130846000002,0,0
1726,2@,1,52,22,31,42,62,12,Abstract_Concrete_6tasks_simseq_2seq_listtask_switchAB_fMRI,555530,42513,15432,6,10,210,B1,helmet,1,2@,6135.1741593,6228.1854734,93.0113141000002,0,0
3482,3#,1,52,21,32,42,61,12,Abstract_Concrete_6tasks_simseq_2seq_listtask_switchAB_fMRI,555530,42513,15432,6,11,211,A3,tools,6,3#,6135.1741593,6237.1879608,102.0138015,0,0
4306,9(,1,51,21,31,42,62,11,Abstract_Concrete_6tasks_simseq_2seq_listtask_switchAB_fMRI,555530,42513,15432,6,12,212,B4,glasses,3,9(,6135.1741593,6248.1862447,113.012085400001,0,0
2902,8*,0,51,22,32,41,61,11,Abstract_Concrete_6tasks_simseq_2seq_listtask_switchAB_fMRI,555530,42513,15432,6,13,213,A5,glasses,3,9(,6135.1741593,6260.1863204,125.0121611,6263.1032875,127.9291282
2425,9(,1,51,22,32,41,61,11,Abstract_Concrete_6tasks_simseq_2seq_listtask_switchAB_fMRI,555530,42513,15432,6,14,214,B4,glasses,3,9(,6135.1741593,6270.185652,135.0114927,0,0
2495,8*,1,52,21,31,41,61,11,Abstract_Concrete_6tasks_simseq_2seq_listtask_switchAB_fMRI,555530,42513,15432,6,15,215,A2,vest,2,8*,6135.1741593,6280.186366,145.0122067,0,0
2254,3#,1,52,21,32,42,62,11,Abstract_Concrete_6tasks_simseq_2seq_listtask_switchAB_fMRI,555530,42513,15432,6,16,216,B2,tools,6,3#,6135.1741593,6290.1876005,155.013441200001,0,0
1717,9(,1,51,21,31,42,61,11,Abstract_Concrete_6tasks_simseq_2seq_listtask_switchAB_fMRI,555530,42513,15432,6,17,217,A5,glasses,3,9(,6135.1741593,6300.1863113,165.012152,0,0
3675,8*,1,52,22,32,42,62,11,Abstract_Concrete_6tasks_simseq_2seq_listtask_switchAB_fMRI,555530,42513,15432,6,18,218,B5,vest,2,8*,6135.1741593,6309.1874352,174.013275900001,0,0
2256,3#,1,51,22,32,42,61,11,Abstract_Concrete_6tasks_simseq_2seq_listtask_switchAB_fMRI,555530,42513,15432,6,19,219,A3,tools,6,3#,6135.1741593,6320.1857347,185.0115754,0,0
2296,8*,1,51,22,31,41,61,11,Abstract_Concrete_6tasks_simseq_2seq_listtask_switchAB_fMRI,555530,42513,15432,6,20,220,B5,vest,2,8*,6135.1741593,6330.187943,195.0137837,0,0
1443,2@,1,52,21,31,41,61,11,Abstract_Concrete_6tasks_simseq_2seq_listtask_switchAB_fMRI,555530,42513,15432,6,21,221,A4,helmet,1,2@,6135.1741593,6340.1860159,205.0118566,0,0
2677,3#,1,52,22,32,41,61,12,Abstract_Concrete_6tasks_simseq_2seq_listtask_switchAB_fMRI,555530,42513,15432,6,22,222,B2,tools,6,3#,6135.1741593,6349.187975,214.0138157,0,0
1161,7&,1,51,21,31,41,61,11,Abstract_Concrete_6tasks_simseq_2seq_listtask_switchAB_fMRI,555530,42513,15432,6,23,223,A1,weapon,5,7&,6135.1741593,6359.1865243,224.012365000001,0,0
2200,7&,1,52,22,31,42,62,12,Abstract_Concrete_6tasks_simseq_2seq_listtask_switchAB_fMRI,555530,42513,15432,6,24,224,B3,weapon,5,7&,6135.1741593,6368.1861294,233.0119701,0,0
3052,2@,1,51,21,31,41,61,12,Abstract_Concrete_6tasks_simseq_2seq_listtask_switchAB_fMRI,555530,42513,15432,6,25,225,A4,helmet,1,2@,6135.1741593,6378.1858708,243.0117115,0,0
1441,7&,1,51,22,31,41,61,11,Abstract_Concrete_6tasks_simseq_2seq_listtask_switchAB_fMRI,555530,42513,15432,6,26,226,B3,weapon,5,7&,6135.1741593,6389.1859913,254.011832,0,0
1330,3#,1,51,22,31,41,62,12,Abstract_Concrete_6tasks_simseq_2seq_listtask_switchAB_fMRI,555530,42513,15432,6,27,227,A3,tools,6,3#,6135.1741593,6398.1858302,263.0116709,0,0
1494,2@,1,51,21,32,42,62,11,Abstract_Concrete_6tasks_simseq_2seq_listtask_switchAB_fMRI,555530,42513,15432,6,28,228,B1,helmet,1,2@,6135.1741593,6407.1845949,272.0104356,0,0
2654,2@,1,51,21,32,42,62,11,Abstract_Concrete_6tasks_simseq_2seq_listtask_switchAB_fMRI,555530,42513,15432,6,29,229,A4,helmet,1,2@,6135.1741593,6416.1868571,281.012697800001,0,0
1262,8*,1,51,21,32,41,61,12,Abstract_Concrete_6tasks_simseq_2seq_listtask_switchAB_fMRI,555530,42513,15432,6,30,230,B5,vest,2,8*,6135.1741593,6426.1852026,291.0110433,0,0
1041,7&,1,52,21,31,42,62,11,Abstract_Concrete_6tasks_simseq_2seq_listtask_switchAB_fMRI,555530,42513,15432,6,31,231,A1,weapon,5,7&,6135.1741593,6435.1878879,300.0137286,0,0
2203,7&,1,51,21,32,42,61,12,Abstract_Concrete_6tasks_simseq_2seq_listtask_switchAB_fMRI,555530,42513,15432,6,32,232,B3,weapon,5,7&,6135.1741593,6444.1842521,309.0100928,0,0
4129,9(,0,52,22,32,41,62,12,Abstract_Concrete_6tasks_simseq_2seq_listtask_switchAB_fMRI,555530,42513,15432,6,33,233,A3,tools,6,3#,6135.1741593,6454.1860471,319.0118878,6458.3275121,323.1533528
2072,9(,1,51,21,32,41,62,11,Abstract_Concrete_6tasks_simseq_2seq_listtask_switchAB_fMRI,555530,42513,15432,6,34,234,B4,glasses,3,9(,6135.1741593,6466.1869993,331.01284,0,0
1048,7&,1,52,21,32,41,62,11,Abstract_Concrete_6tasks_simseq_2seq_listtask_switchAB_fMRI,555530,42513,15432,6,35,235,A1,weapon,5,7&,6135.1741593,6476.1872909,341.013131600001,0,0
1203,2@,1,51,22,32,41,61,12,Abstract_Concrete_6tasks_simseq_2seq_listtask_switchAB_fMRI,555530,42513,15432,6,36,236,B1,helmet,1,2@,6135.1741593,6485.1917454,350.017586100001,0,0
1325,8*,1,51,22,31,41,62,11,Abstract_Concrete_6tasks_simseq_2seq_listtask_switchAB_fMRI,555530,42513,15432,6,37,237,A2,vest,2,8*,6135.1741593,6494.1876957,359.013536400001,0,0
2055,3#,1,51,22,32,41,61,11,Abstract_Concrete_6tasks_simseq_2seq_listtask_switchAB_fMRI,555530,42513,15432,6,38,238,B2,tools,6,3#,6135.1741593,6503.1873904,368.013231100001,0,0
2666,9(,1,52,21,32,42,62,12,Abstract_Concrete_6tasks_simseq_2seq_listtask_switchAB_fMRI,555530,42513,15432,6,39,239,A5,glasses,3,9(,6135.1741593,6513.1861839,378.012024600001,0,0
1381,2@,1,51,22,32,41,62,11,Abstract_Concrete_6tasks_simseq_2seq_listtask_switchAB_fMRI,555530,42513,15432,6,40,240,B1,helmet,1,2@,6135.1741593,6523.1863993,388.01224,0,0
