rt1,resp1,correct1,features_1,features_2,features_3,features_4,features_5,features_6,ExpName,subNo,seqA,seqB,block,trial,trialnum,cuetype,task,subtaskcode,corr_resp1,onsetTime_s,onsetTime_cue,onset_cue,onsetTime_cue_fb,onset_cue_fb
3040,2@,1,12,22,42,61,32,51,Abstract_Concrete_6tasks_simseq_2seq_listtask_switchAB_fMRI,642305,14253,52134,1,1,1,A2,weapon,5,2@,10894.4973411,10902.5102674,8.01292630000171,0,0
3862,3#,1,11,22,42,62,32,52,Abstract_Concrete_6tasks_simseq_2seq_listtask_switchAB_fMRI,642305,14253,52134,1,2,2,B4,glasses,3,3#,10894.4973411,10913.5094767,19.0121356,0,0
4988,4$,1,11,21,42,61,31,52,Abstract_Concrete_6tasks_simseq_2seq_listtask_switchAB_fMRI,642305,14253,52134,1,3,3,A4,tools,6,4$,10894.4973411,10924.5101694,30.0128283000013,0,0
2793,4$,1,12,21,42,61,32,52,Abstract_Concrete_6tasks_simseq_2seq_listtask_switchAB_fMRI,642305,14253,52134,1,4,4,B1,tools,6,4$,10894.4973411,10937.5101333,43.0127922000011,0,0
6942,2@,1,12,22,42,61,32,52,Abstract_Concrete_6tasks_simseq_2seq_listtask_switchAB_fMRI,642305,14253,52134,1,5,5,A2,weapon,5,2@,10894.4973411,10947.506686,53.0093449000015,0,0
5371,7&,1,12,21,42,61,31,51,Abstract_Concrete_6tasks_simseq_2seq_listtask_switchAB_fMRI,642305,14253,52134,1,6,6,B3,helmet,1,7&,10894.4973411,10961.5095174,67.0121763000006,0,0
3579,8*,1,11,21,41,62,31,51,Abstract_Concrete_6tasks_simseq_2seq_listtask_switchAB_fMRI,642305,14253,52134,1,7,7,A3,vest,2,8*,10894.4973411,10974.5110585,80.013717400001,0,0
5724,8*,1,11,21,41,62,31,52,Abstract_Concrete_6tasks_simseq_2seq_listtask_switchAB_fMRI,642305,14253,52134,1,8,8,B2,vest,2,8*,10894.4973411,10985.5095148,91.0121737000009,0,0
1488,7&,1,11,22,42,62,32,52,Abstract_Concrete_6tasks_simseq_2seq_listtask_switchAB_fMRI,642305,14253,52134,1,9,9,A1,helmet,1,7&,10894.4973411,10998.510277,104.0129359,0,0
2375,4$,1,11,21,42,62,31,52,Abstract_Concrete_6tasks_simseq_2seq_listtask_switchAB_fMRI,642305,14253,52134,1,10,10,B1,tools,6,4$,10894.4973411,11007.5087732,113.0114321,0,0
5012,3#,1,12,21,41,62,31,52,Abstract_Concrete_6tasks_simseq_2seq_listtask_switchAB_fMRI,642305,14253,52134,1,11,11,A5,glasses,3,3#,10894.4973411,11017.5095262,123.0121851,0,0
5595,2@,1,11,21,41,62,32,52,Abstract_Concrete_6tasks_simseq_2seq_listtask_switchAB_fMRI,642305,14253,52134,1,12,12,B5,weapon,5,2@,10894.4973411,11030.5106176,136.013276500002,0,0
4777,4$,1,12,22,41,61,31,51,Abstract_Concrete_6tasks_simseq_2seq_listtask_switchAB_fMRI,642305,14253,52134,1,13,13,A4,tools,6,4$,10894.4973411,11043.5085052,149.0111641,0,0
3001,3#,1,11,22,42,62,32,52,Abstract_Concrete_6tasks_simseq_2seq_listtask_switchAB_fMRI,642305,14253,52134,1,14,14,B4,glasses,3,3#,10894.4973411,11055.5084214,161.011080300001,0,0
3347,4$,1,11,21,41,61,32,52,Abstract_Concrete_6tasks_simseq_2seq_listtask_switchAB_fMRI,642305,14253,52134,1,15,15,A4,tools,6,4$,10894.4973411,11066.5099569,172.0126158,0,0
3533,7&,1,11,21,41,61,32,51,Abstract_Concrete_6tasks_simseq_2seq_listtask_switchAB_fMRI,642305,14253,52134,1,16,16,B3,helmet,1,7&,10894.4973411,11077.509613,183.012271900001,0,0
1645,7&,1,12,22,41,61,31,52,Abstract_Concrete_6tasks_simseq_2seq_listtask_switchAB_fMRI,642305,14253,52134,1,17,17,A1,helmet,1,7&,10894.4973411,11088.5099005,194.0125594,0,0
2844,4$,1,12,22,42,62,31,52,Abstract_Concrete_6tasks_simseq_2seq_listtask_switchAB_fMRI,642305,14253,52134,1,18,18,B1,tools,6,4$,10894.4973411,11097.5080694,203.010728300002,0,0
4046,3#,1,12,21,42,62,31,52,Abstract_Concrete_6tasks_simseq_2seq_listtask_switchAB_fMRI,642305,14253,52134,1,19,19,A5,glasses,3,3#,10894.4973411,11107.5096785,213.012337400001,0,0
2133,7&,1,12,21,42,61,31,52,Abstract_Concrete_6tasks_simseq_2seq_listtask_switchAB_fMRI,642305,14253,52134,1,20,20,B3,helmet,1,7&,10894.4973411,11119.5099747,225.012633600001,0,0
2347,7&,1,11,22,42,61,32,52,Abstract_Concrete_6tasks_simseq_2seq_listtask_switchAB_fMRI,642305,14253,52134,1,21,21,A1,helmet,1,7&,10894.4973411,11129.5108967,235.0135556,0,0
2543,7&,1,12,21,41,61,31,51,Abstract_Concrete_6tasks_simseq_2seq_listtask_switchAB_fMRI,642305,14253,52134,1,22,22,B3,helmet,1,7&,10894.4973411,11139.5104257,245.013084600001,0,0
2277,3#,1,11,21,41,62,31,52,Abstract_Concrete_6tasks_simseq_2seq_listtask_switchAB_fMRI,642305,14253,52134,1,23,23,A5,glasses,3,3#,10894.4973411,11149.5110947,255.0137536,0,0
2920,3#,1,11,21,42,62,32,52,Abstract_Concrete_6tasks_simseq_2seq_listtask_switchAB_fMRI,642305,14253,52134,1,24,24,B4,glasses,3,3#,10894.4973411,11159.5088235,265.011482400001,0,0
1167,7&,1,12,22,41,62,32,51,Abstract_Concrete_6tasks_simseq_2seq_listtask_switchAB_fMRI,642305,14253,52134,1,25,25,A1,helmet,1,7&,10894.4973411,11169.5076352,275.0102941,0,0
0,,0,12,22,42,61,31,51,Abstract_Concrete_6tasks_simseq_2seq_listtask_switchAB_fMRI,642305,14253,52134,1,26,26,B4,glasses,3,3#,10894.4973411,11178.5101954,284.012854300001,11187.5538659,293.0565248
3366,8*,1,12,22,42,62,31,52,Abstract_Concrete_6tasks_simseq_2seq_listtask_switchAB_fMRI,642305,14253,52134,1,27,27,A3,vest,2,8*,10894.4973411,11195.5075703,301.010229200001,0,0
2853,8*,1,11,21,41,61,31,51,Abstract_Concrete_6tasks_simseq_2seq_listtask_switchAB_fMRI,642305,14253,52134,1,28,28,B2,vest,2,8*,10894.4973411,11206.5109306,312.0135895,0,0
2642,2@,1,11,21,41,61,32,52,Abstract_Concrete_6tasks_simseq_2seq_listtask_switchAB_fMRI,642305,14253,52134,1,29,29,A2,weapon,5,2@,10894.4973411,11216.5082841,322.010943000001,0,0
4185,2@,1,12,22,41,61,32,52,Abstract_Concrete_6tasks_simseq_2seq_listtask_switchAB_fMRI,642305,14253,52134,1,30,30,B5,weapon,5,2@,10894.4973411,11226.5084057,332.011064600001,0,0
2126,3#,0,12,21,42,61,32,52,Abstract_Concrete_6tasks_simseq_2seq_listtask_switchAB_fMRI,642305,14253,52134,1,31,31,A4,tools,6,4$,10894.4973411,11238.5083561,344.011015,11240.6488075,346.151466400001
2293,4$,1,11,21,41,62,32,51,Abstract_Concrete_6tasks_simseq_2seq_listtask_switchAB_fMRI,642305,14253,52134,1,32,32,B1,tools,6,4$,10894.4973411,11248.507595,354.0102539,0,0
3074,8*,1,11,21,41,61,32,52,Abstract_Concrete_6tasks_simseq_2seq_listtask_switchAB_fMRI,642305,14253,52134,1,33,33,A3,vest,2,8*,10894.4973411,11258.5106765,364.013335400001,0,0
3838,2@,1,12,22,42,62,31,52,Abstract_Concrete_6tasks_simseq_2seq_listtask_switchAB_fMRI,642305,14253,52134,1,34,34,B5,weapon,5,2@,10894.4973411,11269.5103947,375.013053600002,0,0
3829,3#,1,12,21,42,61,32,52,Abstract_Concrete_6tasks_simseq_2seq_listtask_switchAB_fMRI,642305,14253,52134,1,35,35,A5,glasses,3,3#,10894.4973411,11280.5085509,386.011209800001,0,0
2206,2@,1,12,22,42,62,32,52,Abstract_Concrete_6tasks_simseq_2seq_listtask_switchAB_fMRI,642305,14253,52134,1,36,36,B5,weapon,5,2@,10894.4973411,11291.5086251,397.011284,0,0
2781,2@,1,11,21,42,62,32,52,Abstract_Concrete_6tasks_simseq_2seq_listtask_switchAB_fMRI,642305,14253,52134,1,37,37,A2,weapon,5,2@,10894.4973411,11301.5075159,407.010174800002,0,0
3754,8*,1,12,22,42,61,31,52,Abstract_Concrete_6tasks_simseq_2seq_listtask_switchAB_fMRI,642305,14253,52134,1,38,38,B2,vest,2,8*,10894.4973411,11311.5077295,417.0103884,0,0
3396,8*,1,11,21,42,62,32,51,Abstract_Concrete_6tasks_simseq_2seq_listtask_switchAB_fMRI,642305,14253,52134,1,39,39,A3,vest,2,8*,10894.4973411,11322.5086808,428.0113397,0,0
1892,8*,1,12,22,41,62,31,51,Abstract_Concrete_6tasks_simseq_2seq_listtask_switchAB_fMRI,642305,14253,52134,1,40,40,B2,vest,2,8*,10894.4973411,11333.510218,439.0128769,0,0
1827,4$,1,11,22,42,61,32,51,Abstract_Concrete_6tasks_simseq_2seq_listtask_switchAB_fMRI,642305,14253,52134,2,1,41,B1,tools,6,4$,11383.1183649,11391.1275238,8.00915890000033,0,0
1242,7&,1,12,22,41,62,32,52,Abstract_Concrete_6tasks_simseq_2seq_listtask_switchAB_fMRI,642305,14253,52134,2,2,42,A1,helmet,1,7&,11383.1183649,11400.129422,17.0110571000005,0,0
2046,8*,1,11,21,41,62,32,52,Abstract_Concrete_6tasks_simseq_2seq_listtask_switchAB_fMRI,642305,14253,52134,2,3,43,B2,vest,2,8*,11383.1183649,11409.1358082,26.0174433000011,0,0
4430,2@,1,12,21,42,62,31,51,Abstract_Concrete_6tasks_simseq_2seq_listtask_switchAB_fMRI,642305,14253,52134,2,4,44,A2,weapon,5,2@,11383.1183649,11419.1284559,36.0100910000001,0,0
4387,4$,1,12,22,42,62,31,51,Abstract_Concrete_6tasks_simseq_2seq_listtask_switchAB_fMRI,642305,14253,52134,2,5,45,B1,tools,6,4$,11383.1183649,11431.1306749,48.0123100000001,0,0
2312,7&,1,11,21,42,62,32,51,Abstract_Concrete_6tasks_simseq_2seq_listtask_switchAB_fMRI,642305,14253,52134,2,6,46,A1,helmet,1,7&,11383.1183649,11443.1313474,60.0129825000004,0,0
5754,4$,0,11,22,42,62,31,52,Abstract_Concrete_6tasks_simseq_2seq_listtask_switchAB_fMRI,642305,14253,52134,2,7,47,B5,weapon,5,2@,11383.1183649,11453.1296802,70.0113153000002,11458.9022488,75.7838838999996
4795,4$,1,11,22,42,61,31,51,Abstract_Concrete_6tasks_simseq_2seq_listtask_switchAB_fMRI,642305,14253,52134,2,8,48,A4,tools,6,4$,11383.1183649,11466.1303374,83.0119725000004,0,0
4172,7&,1,12,21,42,61,32,52,Abstract_Concrete_6tasks_simseq_2seq_listtask_switchAB_fMRI,642305,14253,52134,2,9,49,B3,helmet,1,7&,11383.1183649,11478.1323809,95.014016000001,0,0
1960,2@,1,11,21,41,62,31,51,Abstract_Concrete_6tasks_simseq_2seq_listtask_switchAB_fMRI,642305,14253,52134,2,10,50,A2,weapon,5,2@,11383.1183649,11490.1307557,107.012390800001,0,0
2173,2@,1,12,22,42,62,31,52,Abstract_Concrete_6tasks_simseq_2seq_listtask_switchAB_fMRI,642305,14253,52134,2,11,51,B5,weapon,5,2@,11383.1183649,11499.1317836,116.0134187,0,0
2547,7&,1,12,21,41,62,32,52,Abstract_Concrete_6tasks_simseq_2seq_listtask_switchAB_fMRI,642305,14253,52134,2,12,52,A1,helmet,1,7&,11383.1183649,11509.1307242,126.012359300001,0,0
3049,3#,1,11,21,41,62,31,52,Abstract_Concrete_6tasks_simseq_2seq_listtask_switchAB_fMRI,642305,14253,52134,2,13,53,B4,glasses,3,3#,11383.1183649,11519.1303282,136.011963300001,0,0
6592,3#,1,12,22,41,62,31,51,Abstract_Concrete_6tasks_simseq_2seq_listtask_switchAB_fMRI,642305,14253,52134,2,14,54,A5,glasses,3,3#,11383.1183649,11530.1296776,147.0113127,0,0
2667,3#,1,11,21,41,61,31,51,Abstract_Concrete_6tasks_simseq_2seq_listtask_switchAB_fMRI,642305,14253,52134,2,15,55,B4,glasses,3,3#,11383.1183649,11544.1308942,161.0125293,0,0
2198,8*,1,12,22,41,61,31,51,Abstract_Concrete_6tasks_simseq_2seq_listtask_switchAB_fMRI,642305,14253,52134,2,16,56,A3,vest,2,8*,11383.1183649,11554.1303265,171.011961600001,0,0
1688,8*,1,12,21,41,62,31,51,Abstract_Concrete_6tasks_simseq_2seq_listtask_switchAB_fMRI,642305,14253,52134,2,17,57,B2,vest,2,8*,11383.1183649,11564.1321312,181.0137663,0,0
1800,8*,1,11,22,42,61,32,52,Abstract_Concrete_6tasks_simseq_2seq_listtask_switchAB_fMRI,642305,14253,52134,2,18,58,A3,vest,2,8*,11383.1183649,11573.1315209,190.013156000001,0,0
2036,4$,1,12,21,41,62,31,52,Abstract_Concrete_6tasks_simseq_2seq_listtask_switchAB_fMRI,642305,14253,52134,2,19,59,B1,tools,6,4$,11383.1183649,11582.1296132,199.011248300001,0,0
1538,8*,1,12,22,41,62,32,51,Abstract_Concrete_6tasks_simseq_2seq_listtask_switchAB_fMRI,642305,14253,52134,2,20,60,A3,vest,2,8*,11383.1183649,11592.1309838,209.0126189,0,0
2022,7&,1,11,21,42,61,31,51,Abstract_Concrete_6tasks_simseq_2seq_listtask_switchAB_fMRI,642305,14253,52134,2,21,61,B3,helmet,1,7&,11383.1183649,11601.1308951,218.0125302,0,0
4114,3#,1,11,22,41,62,31,51,Abstract_Concrete_6tasks_simseq_2seq_listtask_switchAB_fMRI,642305,14253,52134,2,22,62,A5,glasses,3,3#,11383.1183649,11611.1303928,228.0120279,0,0
2257,4$,1,11,21,41,62,31,52,Abstract_Concrete_6tasks_simseq_2seq_listtask_switchAB_fMRI,642305,14253,52134,2,23,63,B1,tools,6,4$,11383.1183649,11623.1307254,240.012360500001,0,0
1145,7&,1,11,21,41,62,31,51,Abstract_Concrete_6tasks_simseq_2seq_listtask_switchAB_fMRI,642305,14253,52134,2,24,64,A1,helmet,1,7&,11383.1183649,11633.1303644,250.0119995,0,0
2627,8*,1,12,22,41,61,31,52,Abstract_Concrete_6tasks_simseq_2seq_listtask_switchAB_fMRI,642305,14253,52134,2,25,65,B2,vest,2,8*,11383.1183649,11642.1314565,259.0130916,0,0
4202,4$,1,11,21,42,61,32,51,Abstract_Concrete_6tasks_simseq_2seq_listtask_switchAB_fMRI,642305,14253,52134,2,26,66,A4,tools,6,4$,11383.1183649,11652.1295679,269.011203,0,0
1798,8*,1,11,21,42,62,32,51,Abstract_Concrete_6tasks_simseq_2seq_listtask_switchAB_fMRI,642305,14253,52134,2,27,67,B2,vest,2,8*,11383.1183649,11664.1316727,281.0133078,0,0
1638,8*,1,11,21,42,62,31,52,Abstract_Concrete_6tasks_simseq_2seq_listtask_switchAB_fMRI,642305,14253,52134,2,28,68,A3,vest,2,8*,11383.1183649,11673.1285017,290.0101368,0,0
2237,3#,1,11,21,41,62,32,51,Abstract_Concrete_6tasks_simseq_2seq_listtask_switchAB_fMRI,642305,14253,52134,2,29,69,B4,glasses,3,3#,11383.1183649,11682.1303732,299.0120083,0,0
2577,2@,1,12,22,41,61,32,52,Abstract_Concrete_6tasks_simseq_2seq_listtask_switchAB_fMRI,642305,14253,52134,2,30,70,A2,weapon,5,2@,11383.1183649,11692.1299752,309.0116103,0,0
3869,2@,1,12,22,41,61,31,52,Abstract_Concrete_6tasks_simseq_2seq_listtask_switchAB_fMRI,642305,14253,52134,2,31,71,B5,weapon,5,2@,11383.1183649,11702.1297303,319.0113654,0,0
3572,3#,1,11,21,41,62,32,52,Abstract_Concrete_6tasks_simseq_2seq_listtask_switchAB_fMRI,642305,14253,52134,2,32,72,A5,glasses,3,3#,11383.1183649,11713.129533,330.0111681,0,0
3060,7&,1,12,22,42,62,31,51,Abstract_Concrete_6tasks_simseq_2seq_listtask_switchAB_fMRI,642305,14253,52134,2,33,73,B3,helmet,1,7&,11383.1183649,11724.1292545,341.0108896,0,0
3753,4$,1,11,21,41,62,31,51,Abstract_Concrete_6tasks_simseq_2seq_listtask_switchAB_fMRI,642305,14253,52134,2,34,74,A4,tools,6,4$,11383.1183649,11735.1313447,352.0129798,0,0
4331,3#,1,11,21,41,62,32,51,Abstract_Concrete_6tasks_simseq_2seq_listtask_switchAB_fMRI,642305,14253,52134,2,35,75,B4,glasses,3,3#,11383.1183649,11746.1287507,363.0103858,0,0
2508,3#,1,12,21,42,61,31,51,Abstract_Concrete_6tasks_simseq_2seq_listtask_switchAB_fMRI,642305,14253,52134,2,36,76,A5,glasses,3,3#,11383.1183649,11758.1288894,375.010524500001,0,0
2174,2@,1,11,21,42,61,31,52,Abstract_Concrete_6tasks_simseq_2seq_listtask_switchAB_fMRI,642305,14253,52134,2,37,77,B5,weapon,5,2@,11383.1183649,11768.1364496,385.018084700001,0,0
2419,2@,1,11,21,41,61,32,51,Abstract_Concrete_6tasks_simseq_2seq_listtask_switchAB_fMRI,642305,14253,52134,2,38,78,A2,weapon,5,2@,11383.1183649,11778.1320257,395.013660800001,0,0
2859,7&,1,11,22,41,61,32,51,Abstract_Concrete_6tasks_simseq_2seq_listtask_switchAB_fMRI,642305,14253,52134,2,39,79,B3,helmet,1,7&,11383.1183649,11788.1295171,405.011152200001,0,0
3434,4$,1,12,21,41,62,31,51,Abstract_Concrete_6tasks_simseq_2seq_listtask_switchAB_fMRI,642305,14253,52134,2,40,80,A4,tools,6,4$,11383.1183649,11798.1295358,415.011170900001,0,0
2748,8*,1,12,21,41,61,32,52,Abstract_Concrete_6tasks_simseq_2seq_listtask_switchAB_fMRI,642305,14253,52134,3,1,81,A3,vest,2,8*,11848.1804997,11856.1923016,8.01180190000014,0,0
2472,3#,1,11,21,41,61,32,52,Abstract_Concrete_6tasks_simseq_2seq_listtask_switchAB_fMRI,642305,14253,52134,3,2,82,B4,glasses,3,3#,11848.1804997,11866.1933668,18.0128671000002,0,0
2716,4$,1,12,21,41,61,31,52,Abstract_Concrete_6tasks_simseq_2seq_listtask_switchAB_fMRI,642305,14253,52134,3,3,83,A4,tools,6,4$,11848.1804997,11876.190435,28.0099353000005,0,0
2587,8*,0,12,22,41,61,32,51,Abstract_Concrete_6tasks_simseq_2seq_listtask_switchAB_fMRI,642305,14253,52134,3,4,84,B3,helmet,1,7&,11848.1804997,11886.1932651,38.0127654000007,11888.826379,40.6458793000002
3165,2@,1,12,21,41,61,31,51,Abstract_Concrete_6tasks_simseq_2seq_listtask_switchAB_fMRI,642305,14253,52134,3,5,85,A2,weapon,5,2@,11848.1804997,11896.1908103,48.0103106000006,0,0
1930,8*,1,12,22,42,62,32,51,Abstract_Concrete_6tasks_simseq_2seq_listtask_switchAB_fMRI,642305,14253,52134,3,6,86,B2,vest,2,8*,11848.1804997,11907.1932228,59.0127231000006,0,0
2738,3#,1,12,21,41,62,32,51,Abstract_Concrete_6tasks_simseq_2seq_listtask_switchAB_fMRI,642305,14253,52134,3,7,87,A5,glasses,3,3#,11848.1804997,11916.1926736,68.0121739000006,0,0
1728,8*,1,12,21,42,62,31,51,Abstract_Concrete_6tasks_simseq_2seq_listtask_switchAB_fMRI,642305,14253,52134,3,8,88,B2,vest,2,8*,11848.1804997,11926.1934391,78.0129393999996,0,0
1451,7&,1,11,22,41,62,31,51,Abstract_Concrete_6tasks_simseq_2seq_listtask_switchAB_fMRI,642305,14253,52134,3,9,89,A1,helmet,1,7&,11848.1804997,11935.1905892,87.0100894999996,0,0
1852,8*,1,11,22,42,62,31,51,Abstract_Concrete_6tasks_simseq_2seq_listtask_switchAB_fMRI,642305,14253,52134,3,10,90,B2,vest,2,8*,11848.1804997,11944.1912433,96.0107435999998,0,0
2952,3#,1,11,21,41,62,32,52,Abstract_Concrete_6tasks_simseq_2seq_listtask_switchAB_fMRI,642305,14253,52134,3,11,91,A5,glasses,3,3#,11848.1804997,11953.1921588,105.011659100001,0,0
892,2@,1,11,22,41,61,32,51,Abstract_Concrete_6tasks_simseq_2seq_listtask_switchAB_fMRI,642305,14253,52134,3,12,92,B5,weapon,5,2@,11848.1804997,11963.1915193,115.011019600001,0,0
4085,8*,1,12,22,41,62,32,51,Abstract_Concrete_6tasks_simseq_2seq_listtask_switchAB_fMRI,642305,14253,52134,3,13,93,A3,vest,2,8*,11848.1804997,11971.1928403,123.0123406,0,0
3505,3#,1,12,21,42,62,32,51,Abstract_Concrete_6tasks_simseq_2seq_listtask_switchAB_fMRI,642305,14253,52134,3,14,94,B4,glasses,3,3#,11848.1804997,11983.1934587,135.012959,0,0
1763,7&,1,12,22,42,61,32,52,Abstract_Concrete_6tasks_simseq_2seq_listtask_switchAB_fMRI,642305,14253,52134,3,15,95,A1,helmet,1,7&,11848.1804997,11994.19375,146.0132503,0,0
3297,4$,1,11,22,42,62,31,51,Abstract_Concrete_6tasks_simseq_2seq_listtask_switchAB_fMRI,642305,14253,52134,3,16,96,B1,tools,6,4$,11848.1804997,12003.1917714,155.011271699999,0,0
2921,2@,1,11,22,41,61,32,52,Abstract_Concrete_6tasks_simseq_2seq_listtask_switchAB_fMRI,642305,14253,52134,3,17,97,A2,weapon,5,2@,11848.1804997,12014.190595,166.0100953,0,0
3527,2@,1,12,21,41,62,31,51,Abstract_Concrete_6tasks_simseq_2seq_listtask_switchAB_fMRI,642305,14253,52134,3,18,98,B5,weapon,5,2@,11848.1804997,12024.1937241,176.0132244,0,0
1241,3#,1,11,21,42,61,32,51,Abstract_Concrete_6tasks_simseq_2seq_listtask_switchAB_fMRI,642305,14253,52134,3,19,99,A5,glasses,3,3#,11848.1804997,12035.1915349,187.011035199999,0,0
2954,2@,1,12,22,42,62,31,51,Abstract_Concrete_6tasks_simseq_2seq_listtask_switchAB_fMRI,642305,14253,52134,3,20,100,B5,weapon,5,2@,11848.1804997,12044.1921455,196.011645799999,0,0
2156,3#,1,12,21,42,62,31,52,Abstract_Concrete_6tasks_simseq_2seq_listtask_switchAB_fMRI,642305,14253,52134,3,21,101,A5,glasses,3,3#,11848.1804997,12054.1936241,206.0131244,0,0
3492,7&,1,11,22,42,61,32,51,Abstract_Concrete_6tasks_simseq_2seq_listtask_switchAB_fMRI,642305,14253,52134,3,22,102,B3,helmet,1,7&,11848.1804997,12064.1918755,216.011375800001,0,0
1759,7&,1,11,21,42,61,32,51,Abstract_Concrete_6tasks_simseq_2seq_listtask_switchAB_fMRI,642305,14253,52134,3,23,103,A1,helmet,1,7&,11848.1804997,12075.1924996,227.0119999,0,0
1502,8*,1,11,21,42,62,32,51,Abstract_Concrete_6tasks_simseq_2seq_listtask_switchAB_fMRI,642305,14253,52134,3,24,104,B2,vest,2,8*,11848.1804997,12084.1932185,236.012718800001,0,0
2998,2@,1,11,22,42,62,31,51,Abstract_Concrete_6tasks_simseq_2seq_listtask_switchAB_fMRI,642305,14253,52134,3,25,105,A2,weapon,5,2@,11848.1804997,12093.1913472,245.0108475,0,0
2078,3#,1,11,22,42,62,31,52,Abstract_Concrete_6tasks_simseq_2seq_listtask_switchAB_fMRI,642305,14253,52134,3,26,106,B4,glasses,3,3#,11848.1804997,12104.1935482,256.013048500001,0,0
1221,7&,1,11,21,41,62,31,51,Abstract_Concrete_6tasks_simseq_2seq_listtask_switchAB_fMRI,642305,14253,52134,3,27,107,A1,helmet,1,7&,11848.1804997,12114.1926773,266.0121776,0,0
2219,2@,1,11,21,42,62,32,52,Abstract_Concrete_6tasks_simseq_2seq_listtask_switchAB_fMRI,642305,14253,52134,3,28,108,B5,weapon,5,2@,11848.1804997,12123.1936443,275.0131446,0,0
4002,4$,1,11,22,41,62,32,52,Abstract_Concrete_6tasks_simseq_2seq_listtask_switchAB_fMRI,642305,14253,52134,3,29,109,A4,tools,6,4$,11848.1804997,12133.1921685,285.0116688,0,0
3060,7&,1,11,22,41,62,32,51,Abstract_Concrete_6tasks_simseq_2seq_listtask_switchAB_fMRI,642305,14253,52134,3,30,110,B3,helmet,1,7&,11848.1804997,12145.1924966,297.011996900001,0,0
2837,4$,1,11,22,41,62,32,52,Abstract_Concrete_6tasks_simseq_2seq_listtask_switchAB_fMRI,642305,14253,52134,3,31,111,A4,tools,6,4$,11848.1804997,12156.1912346,308.010734900001,0,0
1871,4$,1,11,21,41,61,31,52,Abstract_Concrete_6tasks_simseq_2seq_listtask_switchAB_fMRI,642305,14253,52134,3,32,112,B1,tools,6,4$,11848.1804997,12166.1928979,318.0123982,0,0
1801,8*,1,12,22,41,62,32,52,Abstract_Concrete_6tasks_simseq_2seq_listtask_switchAB_fMRI,642305,14253,52134,3,33,113,A3,vest,2,8*,11848.1804997,12175.1914195,327.010919800001,0,0
2221,4$,1,11,22,41,61,31,51,Abstract_Concrete_6tasks_simseq_2seq_listtask_switchAB_fMRI,642305,14253,52134,3,34,114,B1,tools,6,4$,11848.1804997,12184.1931672,336.012667499999,0,0
1958,2@,1,11,22,41,61,31,52,Abstract_Concrete_6tasks_simseq_2seq_listtask_switchAB_fMRI,642305,14253,52134,3,35,115,A2,weapon,5,2@,11848.1804997,12194.1920167,346.011517000001,0,0
1434,4$,1,12,21,42,61,32,52,Abstract_Concrete_6tasks_simseq_2seq_listtask_switchAB_fMRI,642305,14253,52134,3,36,116,B1,tools,6,4$,11848.1804997,12203.1926532,355.0121535,0,0
2073,4$,1,11,21,41,61,32,51,Abstract_Concrete_6tasks_simseq_2seq_listtask_switchAB_fMRI,642305,14253,52134,3,37,117,A4,tools,6,4$,11848.1804997,12212.1934827,364.012983000001,0,0
1743,7&,1,12,22,41,61,31,52,Abstract_Concrete_6tasks_simseq_2seq_listtask_switchAB_fMRI,642305,14253,52134,3,38,118,B3,helmet,1,7&,11848.1804997,12222.1923785,374.0118788,0,0
2164,8*,1,12,21,42,62,31,52,Abstract_Concrete_6tasks_simseq_2seq_listtask_switchAB_fMRI,642305,14253,52134,3,39,119,A3,vest,2,8*,11848.1804997,12231.1929434,383.012443699999,0,0
4912,3#,1,12,21,41,61,32,52,Abstract_Concrete_6tasks_simseq_2seq_listtask_switchAB_fMRI,642305,14253,52134,3,40,120,B4,glasses,3,3#,11848.1804997,12241.1939042,393.0134045,0,0
1786,8*,1,12,21,42,62,32,52,Abstract_Concrete_6tasks_simseq_2seq_listtask_switchAB_fMRI,642305,14253,52134,4,1,121,B2,vest,2,8*,12435.0171429,12443.02922,8.01207710000017,0,0
1544,2@,1,12,21,42,61,31,52,Abstract_Concrete_6tasks_simseq_2seq_listtask_switchAB_fMRI,642305,14253,52134,4,2,122,A2,weapon,5,2@,12435.0171429,12452.0289589,17.0118160000002,0,0
2045,2@,1,11,21,41,62,31,51,Abstract_Concrete_6tasks_simseq_2seq_listtask_switchAB_fMRI,642305,14253,52134,4,3,123,B5,weapon,5,2@,12435.0171429,12461.0308907,26.0137477999997,0,0
2733,4$,1,11,22,41,61,32,52,Abstract_Concrete_6tasks_simseq_2seq_listtask_switchAB_fMRI,642305,14253,52134,4,4,124,A4,tools,6,4$,12435.0171429,12471.0305784,36.0134354999991,0,0
2446,7&,1,11,22,41,61,32,51,Abstract_Concrete_6tasks_simseq_2seq_listtask_switchAB_fMRI,642305,14253,52134,4,5,125,B3,helmet,1,7&,12435.0171429,12481.0298797,46.0127367999994,0,0
1941,4$,1,11,22,42,62,31,52,Abstract_Concrete_6tasks_simseq_2seq_listtask_switchAB_fMRI,642305,14253,52134,4,6,126,A4,tools,6,4$,12435.0171429,12491.030473,56.0133301000005,0,0
3349,7&,1,11,22,41,61,31,51,Abstract_Concrete_6tasks_simseq_2seq_listtask_switchAB_fMRI,642305,14253,52134,4,7,127,B3,helmet,1,7&,12435.0171429,12500.0280334,65.0108904999997,0,0
1214,8*,1,12,21,41,61,32,52,Abstract_Concrete_6tasks_simseq_2seq_listtask_switchAB_fMRI,642305,14253,52134,4,8,128,A3,vest,2,8*,12435.0171429,12511.0291432,76.0120002999993,0,0
1975,8*,1,11,22,42,61,32,52,Abstract_Concrete_6tasks_simseq_2seq_listtask_switchAB_fMRI,642305,14253,52134,4,9,129,B2,vest,2,8*,12435.0171429,12520.0282836,85.0111407000004,0,0
1594,7&,1,11,21,41,61,31,52,Abstract_Concrete_6tasks_simseq_2seq_listtask_switchAB_fMRI,642305,14253,52134,4,10,130,A1,helmet,1,7&,12435.0171429,12529.0294218,94.0122788999997,0,0
1352,4$,1,11,21,41,61,31,52,Abstract_Concrete_6tasks_simseq_2seq_listtask_switchAB_fMRI,642305,14253,52134,4,11,131,B1,tools,6,4$,12435.0171429,12538.0289291,103.011786200001,0,0
1246,7&,1,12,22,41,62,32,52,Abstract_Concrete_6tasks_simseq_2seq_listtask_switchAB_fMRI,642305,14253,52134,4,12,132,A1,helmet,1,7&,12435.0171429,12547.0282639,112.011121,0,0
693,4$,1,12,22,41,62,31,52,Abstract_Concrete_6tasks_simseq_2seq_listtask_switchAB_fMRI,642305,14253,52134,4,13,133,B1,tools,6,4$,12435.0171429,12556.0294293,121.0122864,0,0
882,7&,1,12,21,41,62,32,52,Abstract_Concrete_6tasks_simseq_2seq_listtask_switchAB_fMRI,642305,14253,52134,4,14,134,A1,helmet,1,7&,12435.0171429,12564.0291057,129.011962799999,0,0
2364,2@,1,12,21,41,61,32,51,Abstract_Concrete_6tasks_simseq_2seq_listtask_switchAB_fMRI,642305,14253,52134,4,15,135,B5,weapon,5,2@,12435.0171429,12572.0289509,137.011807999999,0,0
1933,4$,1,11,21,41,62,31,51,Abstract_Concrete_6tasks_simseq_2seq_listtask_switchAB_fMRI,642305,14253,52134,4,16,136,A4,tools,6,4$,12435.0171429,12582.0298817,147.0127388,0,0
3159,7&,1,12,22,42,61,31,52,Abstract_Concrete_6tasks_simseq_2seq_listtask_switchAB_fMRI,642305,14253,52134,4,17,137,B3,helmet,1,7&,12435.0171429,12591.0290048,156.0118619,0,0
3071,3#,1,11,21,41,62,31,51,Abstract_Concrete_6tasks_simseq_2seq_listtask_switchAB_fMRI,642305,14253,52134,4,18,138,A5,glasses,3,3#,12435.0171429,12602.0337099,167.016567000001,0,0
2490,4$,1,11,21,41,62,32,51,Abstract_Concrete_6tasks_simseq_2seq_listtask_switchAB_fMRI,642305,14253,52134,4,19,139,B1,tools,6,4$,12435.0171429,12613.0300046,178.012861699999,0,0
1918,2@,1,12,22,42,61,32,51,Abstract_Concrete_6tasks_simseq_2seq_listtask_switchAB_fMRI,642305,14253,52134,4,20,140,A2,weapon,5,2@,12435.0171429,12623.0294934,188.012350499999,0,0
620,8*,1,12,21,41,61,32,51,Abstract_Concrete_6tasks_simseq_2seq_listtask_switchAB_fMRI,642305,14253,52134,4,21,141,B2,vest,2,8*,12435.0171429,12632.0286342,197.0114913,0,0
827,3#,1,12,22,41,62,31,52,Abstract_Concrete_6tasks_simseq_2seq_listtask_switchAB_fMRI,642305,14253,52134,4,22,142,A5,glasses,3,3#,12435.0171429,12640.0293369,205.012193999999,0,0
1796,2@,1,11,21,42,61,32,51,Abstract_Concrete_6tasks_simseq_2seq_listtask_switchAB_fMRI,642305,14253,52134,4,23,143,B5,weapon,5,2@,12435.0171429,12648.0301994,213.0130565,0,0
2729,2@,1,12,22,42,62,32,51,Abstract_Concrete_6tasks_simseq_2seq_listtask_switchAB_fMRI,642305,14253,52134,4,24,144,A2,weapon,5,2@,12435.0171429,12657.0286315,222.011488599999,0,0
1611,4$,1,12,21,42,61,31,51,Abstract_Concrete_6tasks_simseq_2seq_listtask_switchAB_fMRI,642305,14253,52134,4,25,145,B1,tools,6,4$,12435.0171429,12667.0303305,232.0131876,0,0
1181,8*,1,11,22,42,62,32,51,Abstract_Concrete_6tasks_simseq_2seq_listtask_switchAB_fMRI,642305,14253,52134,4,26,146,A3,vest,2,8*,12435.0171429,12676.0275944,241.0104515,0,0
807,8*,1,12,21,42,62,32,52,Abstract_Concrete_6tasks_simseq_2seq_listtask_switchAB_fMRI,642305,14253,52134,4,27,147,B2,vest,2,8*,12435.0171429,12685.0301743,250.0130314,0,0
1007,7&,1,11,22,41,61,32,52,Abstract_Concrete_6tasks_simseq_2seq_listtask_switchAB_fMRI,642305,14253,52134,4,28,148,A1,helmet,1,7&,12435.0171429,12693.0287474,258.0116045,0,0
2014,3#,1,11,22,42,62,31,52,Abstract_Concrete_6tasks_simseq_2seq_listtask_switchAB_fMRI,642305,14253,52134,4,29,149,B4,glasses,3,3#,12435.0171429,12702.0425273,267.0253844,0,0
2319,8*,1,11,21,42,62,31,51,Abstract_Concrete_6tasks_simseq_2seq_listtask_switchAB_fMRI,642305,14253,52134,4,30,150,A3,vest,2,8*,12435.0171429,12712.0296392,277.0124963,0,0
6009,3#,1,12,22,41,61,31,51,Abstract_Concrete_6tasks_simseq_2seq_listtask_switchAB_fMRI,642305,14253,52134,4,31,151,B4,glasses,3,3#,12435.0171429,12722.0291974,287.012054499999,0,0
4188,3#,1,12,22,41,62,31,52,Abstract_Concrete_6tasks_simseq_2seq_listtask_switchAB_fMRI,642305,14253,52134,4,32,152,A5,glasses,3,3#,12435.0171429,12736.0301369,301.012994000001,0,0
2051,3#,1,12,22,41,61,31,51,Abstract_Concrete_6tasks_simseq_2seq_listtask_switchAB_fMRI,642305,14253,52134,4,33,153,B4,glasses,3,3#,12435.0171429,12748.0491633,313.0320204,0,0
2230,8*,1,11,21,41,62,31,51,Abstract_Concrete_6tasks_simseq_2seq_listtask_switchAB_fMRI,642305,14253,52134,4,34,154,A3,vest,2,8*,12435.0171429,12758.0288375,323.0116946,0,0
3092,7&,1,12,21,42,61,31,51,Abstract_Concrete_6tasks_simseq_2seq_listtask_switchAB_fMRI,642305,14253,52134,4,35,155,B3,helmet,1,7&,12435.0171429,12768.0288533,333.0117104,0,0
1123,3#,1,12,22,41,61,32,52,Abstract_Concrete_6tasks_simseq_2seq_listtask_switchAB_fMRI,642305,14253,52134,4,36,156,A5,glasses,3,3#,12435.0171429,12779.0295804,344.0124375,0,0
1430,2@,1,12,21,42,62,32,52,Abstract_Concrete_6tasks_simseq_2seq_listtask_switchAB_fMRI,642305,14253,52134,4,37,157,B5,weapon,5,2@,12435.0171429,12788.0281493,353.0110064,0,0
1719,4$,1,11,22,41,62,32,51,Abstract_Concrete_6tasks_simseq_2seq_listtask_switchAB_fMRI,642305,14253,52134,4,38,158,A4,tools,6,4$,12435.0171429,12797.0279854,362.0108425,0,0
1359,3#,1,11,22,41,61,31,52,Abstract_Concrete_6tasks_simseq_2seq_listtask_switchAB_fMRI,642305,14253,52134,4,39,159,B4,glasses,3,3#,12435.0171429,12806.0282083,371.0110654,0,0
1610,2@,1,11,21,42,61,32,51,Abstract_Concrete_6tasks_simseq_2seq_listtask_switchAB_fMRI,642305,14253,52134,4,40,160,A2,weapon,5,2@,12435.0171429,12815.0286694,380.0115265,0,0
1619,4$,1,12,22,41,62,32,52,Abstract_Concrete_6tasks_simseq_2seq_listtask_switchAB_fMRI,642305,14253,52134,5,1,161,A4,tools,6,4$,12864.0923341,12872.1021326831,8.0097985831344,0,0
1820,4$,1,12,22,41,62,32,51,Abstract_Concrete_6tasks_simseq_2seq_listtask_switchAB_fMRI,642305,14253,52134,5,2,162,B1,tools,6,4$,12864.0923341,12881.101992747,17.0096586470245,0,0
1899,3#,1,12,21,42,61,32,51,Abstract_Concrete_6tasks_simseq_2seq_listtask_switchAB_fMRI,642305,14253,52134,5,3,163,A5,glasses,3,3#,12864.0923341,12890.1044206,26.0120865000008,0,0
2423,3#,1,11,22,42,62,31,51,Abstract_Concrete_6tasks_simseq_2seq_listtask_switchAB_fMRI,642305,14253,52134,5,4,164,B4,glasses,3,3#,12864.0923341,12899.1030856,35.0107515,0,0
2425,3#,1,12,22,42,61,31,51,Abstract_Concrete_6tasks_simseq_2seq_listtask_switchAB_fMRI,642305,14253,52134,5,5,165,A5,glasses,3,3#,12864.0923341,12909.1059803,45.0136462000009,0,0
1522,2@,1,12,22,41,62,31,51,Abstract_Concrete_6tasks_simseq_2seq_listtask_switchAB_fMRI,642305,14253,52134,5,6,166,B5,weapon,5,2@,12864.0923341,12919.1032531,55.0109190000003,0,0
1342,2@,1,12,21,41,62,32,52,Abstract_Concrete_6tasks_simseq_2seq_listtask_switchAB_fMRI,642305,14253,52134,5,7,167,A2,weapon,5,2@,12864.0923341,12928.1064047,64.0140706000002,0,0
1649,2@,1,12,21,42,61,31,52,Abstract_Concrete_6tasks_simseq_2seq_listtask_switchAB_fMRI,642305,14253,52134,5,8,168,B5,weapon,5,2@,12864.0923341,12937.1046096,73.0122754999993,0,0
1067,7&,1,12,22,41,61,32,51,Abstract_Concrete_6tasks_simseq_2seq_listtask_switchAB_fMRI,642305,14253,52134,5,9,169,A1,helmet,1,7&,12864.0923341,12946.1030323,82.0106981999998,0,0
1659,7&,1,12,22,41,62,32,52,Abstract_Concrete_6tasks_simseq_2seq_listtask_switchAB_fMRI,642305,14253,52134,5,10,170,B3,helmet,1,7&,12864.0923341,12955.1044843,91.0121502000002,0,0
2272,2@,1,12,22,41,62,31,51,Abstract_Concrete_6tasks_simseq_2seq_listtask_switchAB_fMRI,642305,14253,52134,5,11,171,A2,weapon,5,2@,12864.0923341,12964.1044669,100.0121328,0,0
1756,8*,1,11,21,42,61,32,52,Abstract_Concrete_6tasks_simseq_2seq_listtask_switchAB_fMRI,642305,14253,52134,5,12,172,B2,vest,2,8*,12864.0923341,12974.1050272,110.0126931,0,0
1120,7&,1,11,22,41,62,31,52,Abstract_Concrete_6tasks_simseq_2seq_listtask_switchAB_fMRI,642305,14253,52134,5,13,173,A1,helmet,1,7&,12864.0923341,12983.1042651,119.011931000001,0,0
1588,4$,1,11,21,41,61,31,51,Abstract_Concrete_6tasks_simseq_2seq_listtask_switchAB_fMRI,642305,14253,52134,5,14,174,B1,tools,6,4$,12864.0923341,12992.1044144,128.012080300001,0,0
1976,2@,0,11,22,41,61,32,51,Abstract_Concrete_6tasks_simseq_2seq_listtask_switchAB_fMRI,642305,14253,52134,5,15,175,A4,tools,6,4$,12864.0923341,13001.105583,137.013248900001,13003.0957631,139.003429
1720,2@,1,11,21,42,62,31,51,Abstract_Concrete_6tasks_simseq_2seq_listtask_switchAB_fMRI,642305,14253,52134,5,16,176,B5,weapon,5,2@,12864.0923341,13011.1037656,147.011431500001,0,0
1386,8*,1,12,22,41,61,31,52,Abstract_Concrete_6tasks_simseq_2seq_listtask_switchAB_fMRI,642305,14253,52134,5,17,177,A3,vest,2,8*,12864.0923341,13020.1041085,156.0117744,0,0
1607,3#,1,12,22,42,62,31,51,Abstract_Concrete_6tasks_simseq_2seq_listtask_switchAB_fMRI,642305,14253,52134,5,18,178,B4,glasses,3,3#,12864.0923341,13029.1045062,165.0121721,0,0
1292,8*,1,12,21,41,62,31,51,Abstract_Concrete_6tasks_simseq_2seq_listtask_switchAB_fMRI,642305,14253,52134,5,19,179,A3,vest,2,8*,12864.0923341,13038.1042289,174.0118948,0,0
1469,7&,1,11,22,41,62,32,52,Abstract_Concrete_6tasks_simseq_2seq_listtask_switchAB_fMRI,642305,14253,52134,5,20,180,B3,helmet,1,7&,12864.0923341,13047.1062014,183.0138673,0,0
2469,4$,1,12,22,41,62,31,52,Abstract_Concrete_6tasks_simseq_2seq_listtask_switchAB_fMRI,642305,14253,52134,5,21,181,A4,tools,6,4$,12864.0923341,13056.1038179,192.011483800001,0,0
1525,7&,1,12,21,42,62,31,51,Abstract_Concrete_6tasks_simseq_2seq_listtask_switchAB_fMRI,642305,14253,52134,5,22,182,B3,helmet,1,7&,12864.0923341,13066.103938,202.0116039,0,0
1919,3#,1,11,21,42,61,32,51,Abstract_Concrete_6tasks_simseq_2seq_listtask_switchAB_fMRI,642305,14253,52134,5,23,183,A5,glasses,3,3#,12864.0923341,13075.1065554,211.0142213,0,0
2763,3#,1,12,21,41,62,31,51,Abstract_Concrete_6tasks_simseq_2seq_listtask_switchAB_fMRI,642305,14253,52134,5,24,184,B4,glasses,3,3#,12864.0923341,13084.1037145,220.011380399999,0,0
1111,4$,1,11,21,42,61,32,52,Abstract_Concrete_6tasks_simseq_2seq_listtask_switchAB_fMRI,642305,14253,52134,5,25,185,A4,tools,6,4$,12864.0923341,13094.1038774,230.011543300001,0,0
1674,8*,1,11,22,41,62,31,52,Abstract_Concrete_6tasks_simseq_2seq_listtask_switchAB_fMRI,642305,14253,52134,5,26,186,B2,vest,2,8*,12864.0923341,13103.1046452,239.012311099999,0,0
1129,3#,1,11,22,42,61,31,52,Abstract_Concrete_6tasks_simseq_2seq_listtask_switchAB_fMRI,642305,14253,52134,5,27,187,A5,glasses,3,3#,12864.0923341,13112.1037066,248.011372500001,0,0
1481,7&,1,12,21,42,62,32,52,Abstract_Concrete_6tasks_simseq_2seq_listtask_switchAB_fMRI,642305,14253,52134,5,28,188,B3,helmet,1,7&,12864.0923341,13121.1041455,257.0118114,0,0
1260,2@,1,11,21,42,62,31,51,Abstract_Concrete_6tasks_simseq_2seq_listtask_switchAB_fMRI,642305,14253,52134,5,29,189,A2,weapon,5,2@,12864.0923341,13130.1036621,266.011328000001,0,0
1194,8*,1,11,22,41,61,31,52,Abstract_Concrete_6tasks_simseq_2seq_listtask_switchAB_fMRI,642305,14253,52134,5,30,190,B2,vest,2,8*,12864.0923341,13139.1037503,275.011416200001,0,0
1385,8*,1,11,21,42,61,32,52,Abstract_Concrete_6tasks_simseq_2seq_listtask_switchAB_fMRI,642305,14253,52134,5,31,191,A3,vest,2,8*,12864.0923341,13148.10394,284.011605900001,0,0
1858,3#,1,11,21,41,61,31,52,Abstract_Concrete_6tasks_simseq_2seq_listtask_switchAB_fMRI,642305,14253,52134,5,32,192,B4,glasses,3,3#,12864.0923341,13157.1045823,293.012248200001,0,0
1969,8*,1,12,21,41,61,32,51,Abstract_Concrete_6tasks_simseq_2seq_listtask_switchAB_fMRI,642305,14253,52134,5,33,193,A3,vest,2,8*,12864.0923341,13166.1051763,302.0128422,0,0
1917,4$,1,11,21,42,62,32,51,Abstract_Concrete_6tasks_simseq_2seq_listtask_switchAB_fMRI,642305,14253,52134,5,34,194,B1,tools,6,4$,12864.0923341,13175.1029373,311.0106032,0,0
1160,7&,1,11,22,42,62,31,51,Abstract_Concrete_6tasks_simseq_2seq_listtask_switchAB_fMRI,642305,14253,52134,5,35,195,A1,helmet,1,7&,12864.0923341,13184.1024634,320.010129300001,0,0
1446,8*,1,12,21,42,62,31,52,Abstract_Concrete_6tasks_simseq_2seq_listtask_switchAB_fMRI,642305,14253,52134,5,36,196,B2,vest,2,8*,12864.0923341,13193.1039992,329.011665100001,0,0
1696,2@,1,12,22,41,61,32,51,Abstract_Concrete_6tasks_simseq_2seq_listtask_switchAB_fMRI,642305,14253,52134,5,37,197,A2,weapon,5,2@,12864.0923341,13202.1051146,338.012780500001,0,0
1214,2@,1,12,22,42,62,31,52,Abstract_Concrete_6tasks_simseq_2seq_listtask_switchAB_fMRI,642305,14253,52134,5,38,198,B5,weapon,5,2@,12864.0923341,13211.1040172,347.0116831,0,0
1105,7&,1,12,21,41,61,32,52,Abstract_Concrete_6tasks_simseq_2seq_listtask_switchAB_fMRI,642305,14253,52134,5,39,199,A1,helmet,1,7&,12864.0923341,13220.1043064,356.011972300001,0,0
1444,4$,1,12,22,42,62,32,52,Abstract_Concrete_6tasks_simseq_2seq_listtask_switchAB_fMRI,642305,14253,52134,5,40,200,B1,tools,6,4$,12864.0923341,13229.1044789,365.012144800001,0,0
1675,8*,1,11,22,41,62,32,51,Abstract_Concrete_6tasks_simseq_2seq_listtask_switchAB_fMRI,642305,14253,52134,6,1,201,B2,vest,2,8*,13273.4389172,13281.4501909,8.01127369999995,0,0
1540,2@,1,12,22,41,62,31,51,Abstract_Concrete_6tasks_simseq_2seq_listtask_switchAB_fMRI,642305,14253,52134,6,2,202,A2,weapon,5,2@,13273.4389172,13290.4520342,17.0131170000004,0,0
964,3#,1,12,22,41,61,31,52,Abstract_Concrete_6tasks_simseq_2seq_listtask_switchAB_fMRI,642305,14253,52134,6,3,203,B4,glasses,3,3#,13273.4389172,13299.4507156,26.0117984000008,0,0
1522,7&,1,11,21,41,61,31,51,Abstract_Concrete_6tasks_simseq_2seq_listtask_switchAB_fMRI,642305,14253,52134,6,4,204,A1,helmet,1,7&,13273.4389172,13307.4505361,34.0116189,0,0
1056,4$,1,12,21,41,62,31,52,Abstract_Concrete_6tasks_simseq_2seq_listtask_switchAB_fMRI,642305,14253,52134,6,5,205,B1,tools,6,4$,13273.4389172,13316.4508073,43.0118901000005,0,0
1240,8*,1,11,22,41,61,32,52,Abstract_Concrete_6tasks_simseq_2seq_listtask_switchAB_fMRI,642305,14253,52134,6,6,206,A3,vest,2,8*,13273.4389172,13325.4528069,52.0138897000015,0,0
744,3#,1,11,22,41,62,32,52,Abstract_Concrete_6tasks_simseq_2seq_listtask_switchAB_fMRI,642305,14253,52134,6,7,207,B4,glasses,3,3#,13273.4389172,13334.450848,61.0119308000012,0,0
1730,4$,1,11,22,42,61,32,52,Abstract_Concrete_6tasks_simseq_2seq_listtask_switchAB_fMRI,642305,14253,52134,6,8,208,A4,tools,6,4$,13273.4389172,13342.4518967,69.0129795000012,0,0
1474,7&,1,12,22,42,61,31,51,Abstract_Concrete_6tasks_simseq_2seq_listtask_switchAB_fMRI,642305,14253,52134,6,9,209,B3,helmet,1,7&,13273.4389172,13351.4521011,78.0131839000005,0,0
1514,2@,1,12,21,42,62,31,52,Abstract_Concrete_6tasks_simseq_2seq_listtask_switchAB_fMRI,642305,14253,52134,6,10,210,A2,weapon,5,2@,13273.4389172,13360.451136,87.0122188000005,0,0
1493,2@,1,11,22,41,61,31,52,Abstract_Concrete_6tasks_simseq_2seq_listtask_switchAB_fMRI,642305,14253,52134,6,11,211,B5,weapon,5,2@,13273.4389172,13369.4523826,96.0134654000012,0,0
1162,7&,1,12,21,41,62,31,52,Abstract_Concrete_6tasks_simseq_2seq_listtask_switchAB_fMRI,642305,14253,52134,6,12,212,A1,helmet,1,7&,13273.4389172,13378.4510069,105.012089700002,0,0
1655,8*,1,11,21,42,61,31,52,Abstract_Concrete_6tasks_simseq_2seq_listtask_switchAB_fMRI,642305,14253,52134,6,13,213,B2,vest,2,8*,13273.4389172,13387.453497,114.014579800001,0,0
1546,3#,1,11,21,41,62,32,51,Abstract_Concrete_6tasks_simseq_2seq_listtask_switchAB_fMRI,642305,14253,52134,6,14,214,A5,glasses,3,3#,13273.4389172,13396.4497964,123.010879200001,0,0
1379,8*,1,11,22,41,61,32,51,Abstract_Concrete_6tasks_simseq_2seq_listtask_switchAB_fMRI,642305,14253,52134,6,15,215,B2,vest,2,8*,13273.4389172,13405.4512931,132.012375900002,0,0
1122,8*,1,11,21,41,62,32,51,Abstract_Concrete_6tasks_simseq_2seq_listtask_switchAB_fMRI,642305,14253,52134,6,16,216,A3,vest,2,8*,13273.4389172,13414.4511158,141.012198600001,0,0
1559,4$,1,11,21,41,62,32,51,Abstract_Concrete_6tasks_simseq_2seq_listtask_switchAB_fMRI,642305,14253,52134,6,17,217,B1,tools,6,4$,13273.4389172,13423.4519297,150.013012500001,0,0
3716,4$,1,11,22,41,61,32,51,Abstract_Concrete_6tasks_simseq_2seq_listtask_switchAB_fMRI,642305,14253,52134,6,18,218,A4,tools,6,4$,13273.4389172,13432.4503277,159.011410500001,0,0
1681,2@,1,12,21,41,61,32,52,Abstract_Concrete_6tasks_simseq_2seq_listtask_switchAB_fMRI,642305,14253,52134,6,19,219,B5,weapon,5,2@,13273.4389172,13443.4505764,170.011659200001,0,0
2171,4$,1,12,21,41,62,31,52,Abstract_Concrete_6tasks_simseq_2seq_listtask_switchAB_fMRI,642305,14253,52134,6,20,220,A4,tools,6,4$,13273.4389172,13452.4523053,179.0133881,0,0
1685,2@,1,11,22,41,61,32,51,Abstract_Concrete_6tasks_simseq_2seq_listtask_switchAB_fMRI,642305,14253,52134,6,21,221,B5,weapon,5,2@,13273.4389172,13462.4504472,189.011530000002,0,0
1397,3#,1,11,22,42,61,31,51,Abstract_Concrete_6tasks_simseq_2seq_listtask_switchAB_fMRI,642305,14253,52134,6,22,222,A5,glasses,3,3#,13273.4389172,13471.451916,198.012998800001,0,0
1171,3#,1,11,22,42,61,31,52,Abstract_Concrete_6tasks_simseq_2seq_listtask_switchAB_fMRI,642305,14253,52134,6,23,223,B4,glasses,3,3#,13273.4389172,13480.452545,207.013627800001,0,0
1377,2@,1,11,21,41,62,31,52,Abstract_Concrete_6tasks_simseq_2seq_listtask_switchAB_fMRI,642305,14253,52134,6,24,224,A2,weapon,5,2@,13273.4389172,13489.4490612,216.010144000002,0,0
2143,3#,1,12,21,41,61,32,52,Abstract_Concrete_6tasks_simseq_2seq_listtask_switchAB_fMRI,642305,14253,52134,6,25,225,B4,glasses,3,3#,13273.4389172,13498.4522061,225.013288900001,0,0
1701,8*,1,12,21,42,62,32,51,Abstract_Concrete_6tasks_simseq_2seq_listtask_switchAB_fMRI,642305,14253,52134,6,26,226,A3,vest,2,8*,13273.4389172,13508.4513007,235.012383500001,0,0
1884,7&,1,11,21,42,61,31,52,Abstract_Concrete_6tasks_simseq_2seq_listtask_switchAB_fMRI,642305,14253,52134,6,27,227,B3,helmet,1,7&,13273.4389172,13517.4513384,244.012421200001,0,0
1600,4$,1,11,22,41,61,31,51,Abstract_Concrete_6tasks_simseq_2seq_listtask_switchAB_fMRI,642305,14253,52134,6,28,228,A4,tools,6,4$,13273.4389172,13526.4511083,253.012191100001,0,0
1752,7&,1,12,22,41,62,31,51,Abstract_Concrete_6tasks_simseq_2seq_listtask_switchAB_fMRI,642305,14253,52134,6,29,229,B3,helmet,1,7&,13273.4389172,13535.4502433,262.011326100001,0,0
1308,3#,1,11,22,41,62,31,51,Abstract_Concrete_6tasks_simseq_2seq_listtask_switchAB_fMRI,642305,14253,52134,6,30,230,A5,glasses,3,3#,13273.4389172,13544.4502395,271.011322300001,0,0
1355,8*,1,11,21,42,61,32,52,Abstract_Concrete_6tasks_simseq_2seq_listtask_switchAB_fMRI,642305,14253,52134,6,31,231,B2,vest,2,8*,13273.4389172,13553.4519124,280.012995200001,0,0
977,7&,1,12,22,42,62,31,51,Abstract_Concrete_6tasks_simseq_2seq_listtask_switchAB_fMRI,642305,14253,52134,6,32,232,A1,helmet,1,7&,13273.4389172,13562.4500312,289.011114000001,0,0
1642,4$,1,11,21,41,62,32,52,Abstract_Concrete_6tasks_simseq_2seq_listtask_switchAB_fMRI,642305,14253,52134,6,33,233,B1,tools,6,4$,13273.4389172,13570.4500944,297.0111772,0,0
2119,7&,1,11,22,41,62,31,51,Abstract_Concrete_6tasks_simseq_2seq_listtask_switchAB_fMRI,642305,14253,52134,6,34,234,A1,helmet,1,7&,13273.4389172,13579.4516178,306.0127006,0,0
1238,2@,1,11,21,41,62,31,51,Abstract_Concrete_6tasks_simseq_2seq_listtask_switchAB_fMRI,642305,14253,52134,6,35,235,B5,weapon,5,2@,13273.4389172,13589.4506898,316.011772600001,0,0
1454,8*,1,12,21,41,62,32,52,Abstract_Concrete_6tasks_simseq_2seq_listtask_switchAB_fMRI,642305,14253,52134,6,36,236,A3,vest,2,8*,13273.4389172,13598.4499276,325.011010400001,0,0
1466,4$,1,11,21,41,61,32,51,Abstract_Concrete_6tasks_simseq_2seq_listtask_switchAB_fMRI,642305,14253,52134,6,37,237,B1,tools,6,4$,13273.4389172,13607.4493885,334.0104713,0,0
1457,3#,1,12,21,41,62,31,51,Abstract_Concrete_6tasks_simseq_2seq_listtask_switchAB_fMRI,642305,14253,52134,6,38,238,A5,glasses,3,3#,13273.4389172,13616.452074,343.013156800002,0,0
1793,7&,1,12,22,41,61,31,52,Abstract_Concrete_6tasks_simseq_2seq_listtask_switchAB_fMRI,642305,14253,52134,6,39,239,B3,helmet,1,7&,13273.4389172,13625.4502844,352.011367200001,0,0
1832,2@,1,11,22,42,61,32,51,Abstract_Concrete_6tasks_simseq_2seq_listtask_switchAB_fMRI,642305,14253,52134,6,40,240,A2,weapon,5,2@,13273.4389172,13634.4492992,361.010382,0,0
