rt1,resp1,correct1,features_1,features_2,features_3,features_4,features_5,features_6,ExpName,subNo,seqA,seqB,block,trial,trialnum,cuetype,task,subtaskcode,corr_resp1,onsetTime_s,onsetTime_cue,onset_cue,onsetTime_cue_fb,onset_cue_fb
2801,9(,1,21,41,11,61,51,32,Abstract_Concrete_6tasks_simseq_2seq_listtask_switchAB_fMRI,653150,12354,53142,1,1,1,A1,helmet,1,9(,66283.5273802,66291.5380132,8.01063299999805,0,0
3214,7&,1,22,41,12,61,51,32,Abstract_Concrete_6tasks_simseq_2seq_listtask_switchAB_fMRI,653150,12354,53142,1,2,2,B5,vest,2,7&,66283.5273802,66301.5376798,18.010299600006,0,0
2765,3#,1,21,41,11,61,51,31,Abstract_Concrete_6tasks_simseq_2seq_listtask_switchAB_fMRI,653150,12354,53142,1,3,3,A5,weapon,5,3#,66283.5273802,66312.5397948,29.0124146000016,0,0
2420,4$,1,22,41,11,61,51,31,Abstract_Concrete_6tasks_simseq_2seq_listtask_switchAB_fMRI,653150,12354,53142,1,4,4,B1,tools,6,4$,66283.5273802,66322.538357,39.0109767999966,0,0
2880,4$,1,21,42,12,62,52,32,Abstract_Concrete_6tasks_simseq_2seq_listtask_switchAB_fMRI,653150,12354,53142,1,5,5,A4,tools,6,4$,66283.5273802,66332.5399359,49.0125556999992,0,0
3756,3#,1,21,42,12,61,51,32,Abstract_Concrete_6tasks_simseq_2seq_listtask_switchAB_fMRI,653150,12354,53142,1,6,6,B4,weapon,5,3#,66283.5273802,66342.5397209,59.0123406999919,0,0
4157,7&,1,21,41,12,61,51,32,Abstract_Concrete_6tasks_simseq_2seq_listtask_switchAB_fMRI,653150,12354,53142,1,7,7,A2,vest,2,7&,66283.5273802,66353.5380984,70.010718199992,0,0
2167,3#,0,22,42,12,62,51,32,Abstract_Concrete_6tasks_simseq_2seq_listtask_switchAB_fMRI,653150,12354,53142,1,8,8,B5,vest,2,7&,66283.5273802,66365.538755,82.0113748000003,66367.7216528,84.1942725999979
3105,2@,1,22,42,12,62,51,32,Abstract_Concrete_6tasks_simseq_2seq_listtask_switchAB_fMRI,653150,12354,53142,1,9,9,A3,glasses,3,2@,66283.5273802,66375.5393169,92.0119367000007,0,0
2996,9(,1,21,42,11,61,51,32,Abstract_Concrete_6tasks_simseq_2seq_listtask_switchAB_fMRI,653150,12354,53142,1,10,10,B3,helmet,1,9(,66283.5273802,66386.5402665,103.012886299999,0,0
3333,4$,1,21,41,11,61,51,31,Abstract_Concrete_6tasks_simseq_2seq_listtask_switchAB_fMRI,653150,12354,53142,1,11,11,A4,tools,6,4$,66283.5273802,66397.5420691,114.014688900003,0,0
2167,4$,1,22,42,11,62,51,32,Abstract_Concrete_6tasks_simseq_2seq_listtask_switchAB_fMRI,653150,12354,53142,1,12,12,B1,tools,6,4$,66283.5273802,66408.5414849,125.014104699992,0,0
3204,2@,1,21,41,11,61,51,32,Abstract_Concrete_6tasks_simseq_2seq_listtask_switchAB_fMRI,653150,12354,53142,1,13,13,A3,glasses,3,2@,66283.5273802,66418.5405468,135.013166599994,0,0
3018,7&,1,22,42,11,61,51,31,Abstract_Concrete_6tasks_simseq_2seq_listtask_switchAB_fMRI,653150,12354,53142,1,14,14,B5,vest,2,7&,66283.5273802,66429.5409771,146.013596899997,0,0
1552,3#,1,22,42,12,61,51,32,Abstract_Concrete_6tasks_simseq_2seq_listtask_switchAB_fMRI,653150,12354,53142,1,15,15,A5,weapon,5,3#,66283.5273802,66440.5390583,157.011678099996,0,0
2912,2@,1,21,41,11,62,52,31,Abstract_Concrete_6tasks_simseq_2seq_listtask_switchAB_fMRI,653150,12354,53142,1,16,16,B2,glasses,3,2@,66283.5273802,66449.5403681,166.012987900001,0,0
1991,2@,1,22,42,12,62,51,32,Abstract_Concrete_6tasks_simseq_2seq_listtask_switchAB_fMRI,653150,12354,53142,1,17,17,A3,glasses,3,2@,66283.5273802,66459.538864,176.011483800001,0,0
2393,7&,1,21,41,11,62,52,31,Abstract_Concrete_6tasks_simseq_2seq_listtask_switchAB_fMRI,653150,12354,53142,1,18,18,B5,vest,2,7&,66283.5273802,66469.5415932,186.014213000002,0,0
2371,9(,1,22,41,11,62,51,32,Abstract_Concrete_6tasks_simseq_2seq_listtask_switchAB_fMRI,653150,12354,53142,1,19,19,A1,helmet,1,9(,66283.5273802,66479.5386445,196.011264300003,0,0
2037,3#,1,22,41,12,62,51,32,Abstract_Concrete_6tasks_simseq_2seq_listtask_switchAB_fMRI,653150,12354,53142,1,20,20,B4,weapon,5,3#,66283.5273802,66489.5383125,206.010932299992,0,0
2873,4$,1,22,41,12,61,52,31,Abstract_Concrete_6tasks_simseq_2seq_listtask_switchAB_fMRI,653150,12354,53142,1,21,21,A4,tools,6,4$,66283.5273802,66499.5383701,216.010989899994,0,0
1361,4$,1,21,41,12,62,52,32,Abstract_Concrete_6tasks_simseq_2seq_listtask_switchAB_fMRI,653150,12354,53142,1,22,22,B1,tools,6,4$,66283.5273802,66509.538744,226.011363800004,0,0
3359,9(,1,22,42,11,61,52,31,Abstract_Concrete_6tasks_simseq_2seq_listtask_switchAB_fMRI,653150,12354,53142,1,23,23,A1,helmet,1,9(,66283.5273802,66518.5399526,235.012572399995,0,0
1236,4$,1,21,42,12,62,52,31,Abstract_Concrete_6tasks_simseq_2seq_listtask_switchAB_fMRI,653150,12354,53142,1,24,24,B1,tools,6,4$,66283.5273802,66529.5387069,246.011326699998,0,0
2808,9(,0,22,42,11,62,52,31,Abstract_Concrete_6tasks_simseq_2seq_listtask_switchAB_fMRI,653150,12354,53142,1,25,25,A2,vest,2,7&,66283.5273802,66538.5392503,255.011870100003,66541.3579873,257.830607099997
2406,9(,1,21,41,12,61,51,32,Abstract_Concrete_6tasks_simseq_2seq_listtask_switchAB_fMRI,653150,12354,53142,1,26,26,B3,helmet,1,9(,66283.5273802,66548.5376587,265.010278500005,0,0
3967,4$,1,21,42,11,62,51,32,Abstract_Concrete_6tasks_simseq_2seq_listtask_switchAB_fMRI,653150,12354,53142,1,27,27,A4,tools,6,4$,66283.5273802,66558.5403824,275.013002199994,0,0
3488,3#,1,21,41,12,62,52,32,Abstract_Concrete_6tasks_simseq_2seq_listtask_switchAB_fMRI,653150,12354,53142,1,28,28,B4,weapon,5,3#,66283.5273802,66569.5375301,286.010149900001,0,0
3879,3#,1,21,41,12,61,51,31,Abstract_Concrete_6tasks_simseq_2seq_listtask_switchAB_fMRI,653150,12354,53142,1,29,29,A5,weapon,5,3#,66283.5273802,66580.5380049,297.010624699993,0,0
1486,9(,1,21,41,11,62,52,31,Abstract_Concrete_6tasks_simseq_2seq_listtask_switchAB_fMRI,653150,12354,53142,1,30,30,B3,helmet,1,9(,66283.5273802,66591.5393946,308.012014399996,0,0
3110,7&,1,21,42,12,62,51,32,Abstract_Concrete_6tasks_simseq_2seq_listtask_switchAB_fMRI,653150,12354,53142,1,31,31,A2,vest,2,7&,66283.5273802,66600.5397467,317.012366499999,0,0
2282,2@,1,22,41,11,62,51,32,Abstract_Concrete_6tasks_simseq_2seq_listtask_switchAB_fMRI,653150,12354,53142,1,32,32,B2,glasses,3,2@,66283.5273802,66611.5429884,328.015608200003,0,0
1876,7&,1,21,41,12,62,51,31,Abstract_Concrete_6tasks_simseq_2seq_listtask_switchAB_fMRI,653150,12354,53142,1,33,33,A2,vest,2,7&,66283.5273802,66621.5390746,338.011694400004,0,0
2983,9(,1,22,41,11,62,52,32,Abstract_Concrete_6tasks_simseq_2seq_listtask_switchAB_fMRI,653150,12354,53142,1,34,34,B3,helmet,1,9(,66283.5273802,66630.5387687,347.011388500003,0,0
2917,2@,1,22,42,11,62,51,31,Abstract_Concrete_6tasks_simseq_2seq_listtask_switchAB_fMRI,653150,12354,53142,1,35,35,A3,glasses,3,2@,66283.5273802,66640.5384809,357.011100699994,0,0
1548,2@,1,22,42,12,61,51,32,Abstract_Concrete_6tasks_simseq_2seq_listtask_switchAB_fMRI,653150,12354,53142,1,36,36,B2,glasses,3,2@,66283.5273802,66650.5396399,367.012259700001,0,0
5140,9(,1,21,42,11,62,52,31,Abstract_Concrete_6tasks_simseq_2seq_listtask_switchAB_fMRI,653150,12354,53142,1,37,37,A1,helmet,1,9(,66283.5273802,66659.5393862,376.012006000004,0,0
1510,2@,1,21,42,11,61,52,31,Abstract_Concrete_6tasks_simseq_2seq_listtask_switchAB_fMRI,653150,12354,53142,1,38,38,B2,glasses,3,2@,66283.5273802,66672.5383986,389.011018399993,0,0
5367,7&,0,21,41,11,62,51,31,Abstract_Concrete_6tasks_simseq_2seq_listtask_switchAB_fMRI,653150,12354,53142,1,39,39,A5,weapon,5,3#,66283.5273802,66681.540483,398.013102800003,66686.9208293,403.393449099996
3174,3#,1,21,41,12,62,51,31,Abstract_Concrete_6tasks_simseq_2seq_listtask_switchAB_fMRI,653150,12354,53142,1,40,40,B4,weapon,5,3#,66283.5273802,66694.5381128,411.0107326,0,0
6231,4$,1,21,41,12,62,52,31,Abstract_Concrete_6tasks_simseq_2seq_listtask_switchAB_fMRI,653150,12354,53142,2,1,41,A4,tools,6,4$,66766.3297498,66774.3400347,8.0102848999959,0,0
2995,7&,1,21,42,12,61,51,31,Abstract_Concrete_6tasks_simseq_2seq_listtask_switchAB_fMRI,653150,12354,53142,2,2,42,B5,vest,2,7&,66766.3297498,66788.339749,22.0099992000032,0,0
3058,9(,1,21,42,11,61,52,32,Abstract_Concrete_6tasks_simseq_2seq_listtask_switchAB_fMRI,653150,12354,53142,2,3,43,A1,helmet,1,9(,66766.3297498,66799.3424964,33.0127465999976,0,0
2225,9(,1,21,41,11,62,52,32,Abstract_Concrete_6tasks_simseq_2seq_listtask_switchAB_fMRI,653150,12354,53142,2,4,44,B3,helmet,1,9(,66766.3297498,66810.343355,44.0136052000016,0,0
2435,4$,1,21,42,12,61,52,32,Abstract_Concrete_6tasks_simseq_2seq_listtask_switchAB_fMRI,653150,12354,53142,2,5,45,A4,tools,6,4$,66766.3297498,66820.3420438,54.0122940000001,0,0
2792,3#,1,22,42,11,61,51,31,Abstract_Concrete_6tasks_simseq_2seq_listtask_switchAB_fMRI,653150,12354,53142,2,6,46,B4,weapon,5,3#,66766.3297498,66830.3418071,64.0120573000022,0,0
5116,3#,0,21,41,12,62,51,31,Abstract_Concrete_6tasks_simseq_2seq_listtask_switchAB_fMRI,653150,12354,53142,2,7,47,A3,glasses,3,2@,66766.3297498,66840.3413789,74.0116291000013,66845.4730239,79.1432741000026
1418,4$,1,21,42,12,62,52,32,Abstract_Concrete_6tasks_simseq_2seq_listtask_switchAB_fMRI,653150,12354,53142,2,8,48,B1,tools,6,4$,66766.3297498,66853.3408872,87.0111373999971,0,0
5285,7&,1,22,41,11,62,51,32,Abstract_Concrete_6tasks_simseq_2seq_listtask_switchAB_fMRI,653150,12354,53142,2,9,49,A2,vest,2,7&,66766.3297498,66862.3431928,96.0134430000035,0,0
1556,9(,1,21,41,11,62,52,32,Abstract_Concrete_6tasks_simseq_2seq_listtask_switchAB_fMRI,653150,12354,53142,2,10,50,B3,helmet,1,9(,66766.3297498,66875.341377,109.011627200001,0,0
2388,2@,1,21,41,12,61,51,31,Abstract_Concrete_6tasks_simseq_2seq_listtask_switchAB_fMRI,653150,12354,53142,2,11,51,A3,glasses,3,2@,66766.3297498,66884.3415615,118.011811699995,0,0
1659,4$,1,21,41,12,62,51,32,Abstract_Concrete_6tasks_simseq_2seq_listtask_switchAB_fMRI,653150,12354,53142,2,12,52,B1,tools,6,4$,66766.3297498,66894.3419284,128.012178599995,0,0
2539,7&,1,21,42,11,62,51,31,Abstract_Concrete_6tasks_simseq_2seq_listtask_switchAB_fMRI,653150,12354,53142,2,13,53,A2,vest,2,7&,66766.3297498,66903.3403605,137.010610700003,0,0
3449,7&,1,22,42,11,62,52,31,Abstract_Concrete_6tasks_simseq_2seq_listtask_switchAB_fMRI,653150,12354,53142,2,14,54,B5,vest,2,7&,66766.3297498,66913.3415236,147.011773799997,0,0
1993,3#,1,21,41,12,61,52,31,Abstract_Concrete_6tasks_simseq_2seq_listtask_switchAB_fMRI,653150,12354,53142,2,15,55,A5,weapon,5,3#,66766.3297498,66924.3413881,158.011638299999,0,0
4515,3#,1,21,41,11,61,51,31,Abstract_Concrete_6tasks_simseq_2seq_listtask_switchAB_fMRI,653150,12354,53142,2,16,56,B4,weapon,5,3#,66766.3297498,66934.3424785,168.012728699992,0,0
1657,2@,1,21,42,12,62,52,31,Abstract_Concrete_6tasks_simseq_2seq_listtask_switchAB_fMRI,653150,12354,53142,2,17,57,A3,glasses,3,2@,66766.3297498,66946.3429506,180.013200799993,0,0
2680,3#,0,21,42,12,61,52,31,Abstract_Concrete_6tasks_simseq_2seq_listtask_switchAB_fMRI,653150,12354,53142,2,18,58,B5,vest,2,7&,66766.3297498,66955.3409245,189.01117469999,66958.0330592,191.703309399993
1764,2@,1,22,42,12,61,52,32,Abstract_Concrete_6tasks_simseq_2seq_listtask_switchAB_fMRI,653150,12354,53142,2,19,59,A3,glasses,3,2@,66766.3297498,66965.3400939,199.010344099996,0,0
2562,2@,1,22,42,12,62,51,32,Abstract_Concrete_6tasks_simseq_2seq_listtask_switchAB_fMRI,653150,12354,53142,2,20,60,B2,glasses,3,2@,66766.3297498,66974.3416367,208.0118869,0,0
3204,7&,1,22,42,11,62,51,32,Abstract_Concrete_6tasks_simseq_2seq_listtask_switchAB_fMRI,653150,12354,53142,2,21,61,A2,vest,2,7&,66766.3297498,66984.3418026,218.012052799997,0,0
3519,3#,1,21,42,11,62,51,31,Abstract_Concrete_6tasks_simseq_2seq_listtask_switchAB_fMRI,653150,12354,53142,2,22,62,B4,weapon,5,3#,66766.3297498,66995.3409802,229.011230399992,0,0
3101,4$,1,22,42,11,62,51,32,Abstract_Concrete_6tasks_simseq_2seq_listtask_switchAB_fMRI,653150,12354,53142,2,23,63,A4,tools,6,4$,66766.3297498,67006.3399004,240.010150599992,0,0
1877,4$,1,22,41,11,61,52,32,Abstract_Concrete_6tasks_simseq_2seq_listtask_switchAB_fMRI,653150,12354,53142,2,24,64,B1,tools,6,4$,66766.3297498,67017.3406111,251.01086129999,0,0
3407,4$,1,21,42,12,61,51,32,Abstract_Concrete_6tasks_simseq_2seq_listtask_switchAB_fMRI,653150,12354,53142,2,25,65,A4,tools,6,4$,66766.3297498,67026.3388916,260.009141799994,0,0
2469,7&,1,22,41,11,61,52,31,Abstract_Concrete_6tasks_simseq_2seq_listtask_switchAB_fMRI,653150,12354,53142,2,26,66,B5,vest,2,7&,66766.3297498,67037.3411225,271.011372699999,0,0
2014,9(,1,21,41,12,62,51,31,Abstract_Concrete_6tasks_simseq_2seq_listtask_switchAB_fMRI,653150,12354,53142,2,27,67,A1,helmet,1,9(,66766.3297498,67047.3412492,281.011499400003,0,0
4152,9(,1,22,41,11,61,52,31,Abstract_Concrete_6tasks_simseq_2seq_listtask_switchAB_fMRI,653150,12354,53142,2,28,68,B3,helmet,1,9(,66766.3297498,67057.3406475,291.010897699991,0,0
5901,7&,1,21,41,11,61,52,31,Abstract_Concrete_6tasks_simseq_2seq_listtask_switchAB_fMRI,653150,12354,53142,2,29,69,A2,vest,2,7&,66766.3297498,67069.3411179,303.011368099993,0,0
1370,2@,1,22,42,12,61,51,31,Abstract_Concrete_6tasks_simseq_2seq_listtask_switchAB_fMRI,653150,12354,53142,2,30,70,B2,glasses,3,2@,66766.3297498,67082.3399613,316.01021149999,0,0
3578,9(,1,22,41,12,62,51,31,Abstract_Concrete_6tasks_simseq_2seq_listtask_switchAB_fMRI,653150,12354,53142,2,31,71,A1,helmet,1,9(,66766.3297498,67091.3405013,325.010751499998,0,0
1136,2@,1,21,41,11,62,52,32,Abstract_Concrete_6tasks_simseq_2seq_listtask_switchAB_fMRI,653150,12354,53142,2,32,72,B2,glasses,3,2@,66766.3297498,67102.3424153,336.012665499991,0,0
2689,3#,1,21,42,12,62,52,32,Abstract_Concrete_6tasks_simseq_2seq_listtask_switchAB_fMRI,653150,12354,53142,2,33,73,A5,weapon,5,3#,66766.3297498,67111.3437492,345.013999399991,0,0
1949,9(,1,21,41,11,62,51,32,Abstract_Concrete_6tasks_simseq_2seq_listtask_switchAB_fMRI,653150,12354,53142,2,34,74,B3,helmet,1,9(,66766.3297498,67121.3400323,355.010282499992,0,0
1355,3#,1,21,42,12,62,52,31,Abstract_Concrete_6tasks_simseq_2seq_listtask_switchAB_fMRI,653150,12354,53142,2,35,75,A5,weapon,5,3#,66766.3297498,67130.3385701,364.00882029999,0,0
2747,3#,1,21,42,12,62,52,32,Abstract_Concrete_6tasks_simseq_2seq_listtask_switchAB_fMRI,653150,12354,53142,2,36,76,B4,weapon,5,3#,66766.3297498,67139.3411503,373.011400499992,0,0
1988,9(,1,21,41,11,61,52,32,Abstract_Concrete_6tasks_simseq_2seq_listtask_switchAB_fMRI,653150,12354,53142,2,37,77,A1,helmet,1,9(,66766.3297498,67149.3398986,383.010148799993,0,0
1316,4$,1,22,42,12,62,51,31,Abstract_Concrete_6tasks_simseq_2seq_listtask_switchAB_fMRI,653150,12354,53142,2,38,78,B1,tools,6,4$,66766.3297498,67158.3390429,392.009293099996,0,0
1217,3#,1,22,42,12,62,52,32,Abstract_Concrete_6tasks_simseq_2seq_listtask_switchAB_fMRI,653150,12354,53142,2,39,79,A5,weapon,5,3#,66766.3297498,67167.3427148,401.012965000002,0,0
1030,2@,1,21,41,11,62,52,32,Abstract_Concrete_6tasks_simseq_2seq_listtask_switchAB_fMRI,653150,12354,53142,2,40,80,B2,glasses,3,2@,66766.3297498,67176.3428642,410.013114400004,0,0
6786,4$,1,21,41,11,62,52,32,Abstract_Concrete_6tasks_simseq_2seq_listtask_switchAB_fMRI,653150,12354,53142,3,1,81,A4,tools,6,4$,67231.5610118,67239.5723647,8.01135289999365,0,0
4851,9(,1,21,41,12,62,51,31,Abstract_Concrete_6tasks_simseq_2seq_listtask_switchAB_fMRI,653150,12354,53142,3,2,82,B3,helmet,1,9(,67231.5610118,67253.5706375,22.0096256999968,0,0
2151,3#,1,21,41,12,61,52,32,Abstract_Concrete_6tasks_simseq_2seq_listtask_switchAB_fMRI,653150,12354,53142,3,3,83,A5,weapon,5,3#,67231.5610118,67265.5731115,34.0120996999904,0,0
1833,2@,1,22,41,11,61,51,31,Abstract_Concrete_6tasks_simseq_2seq_listtask_switchAB_fMRI,653150,12354,53142,3,4,84,B2,glasses,3,2@,67231.5610118,67275.5724538,44.0114420000027,0,0
3129,2@,1,22,42,12,62,52,32,Abstract_Concrete_6tasks_simseq_2seq_listtask_switchAB_fMRI,653150,12354,53142,3,5,85,A3,glasses,3,2@,67231.5610118,67284.5731065,53.0120946999959,0,0
2244,2@,1,21,41,12,61,52,31,Abstract_Concrete_6tasks_simseq_2seq_listtask_switchAB_fMRI,653150,12354,53142,3,6,86,B2,glasses,3,2@,67231.5610118,67295.5754305,64.0144186999969,0,0
2368,2@,1,21,41,11,61,52,32,Abstract_Concrete_6tasks_simseq_2seq_listtask_switchAB_fMRI,653150,12354,53142,3,7,87,A3,glasses,3,2@,67231.5610118,67305.573142,74.0121301999898,0,0
3606,9(,1,21,41,11,62,52,32,Abstract_Concrete_6tasks_simseq_2seq_listtask_switchAB_fMRI,653150,12354,53142,3,8,88,B3,helmet,1,9(,67231.5610118,67315.5728744,84.0118625999894,0,0
1874,9(,1,21,41,12,61,52,31,Abstract_Concrete_6tasks_simseq_2seq_listtask_switchAB_fMRI,653150,12354,53142,3,9,89,A1,helmet,1,9(,67231.5610118,67326.5729877,95.0119758999936,0,0
2110,2@,1,22,42,11,62,51,32,Abstract_Concrete_6tasks_simseq_2seq_listtask_switchAB_fMRI,653150,12354,53142,3,10,90,B2,glasses,3,2@,67231.5610118,67335.5713997,104.010387899994,0,0
4365,7&,1,22,42,12,61,51,32,Abstract_Concrete_6tasks_simseq_2seq_listtask_switchAB_fMRI,653150,12354,53142,3,11,91,A2,vest,2,7&,67231.5610118,67345.5729957,114.011983899996,0,0
1142,2@,1,21,41,11,62,52,32,Abstract_Concrete_6tasks_simseq_2seq_listtask_switchAB_fMRI,653150,12354,53142,3,12,92,B2,glasses,3,2@,67231.5610118,67357.5729808,126.011968999999,0,0
4076,2@,1,21,42,11,61,52,31,Abstract_Concrete_6tasks_simseq_2seq_listtask_switchAB_fMRI,653150,12354,53142,3,13,93,A3,glasses,3,2@,67231.5610118,67366.5737974,135.012785599989,0,0
3339,3#,1,21,41,12,62,51,31,Abstract_Concrete_6tasks_simseq_2seq_listtask_switchAB_fMRI,653150,12354,53142,3,14,94,B4,weapon,5,3#,67231.5610118,67378.5744263,147.01341449999,0,0
4055,2@,1,22,42,12,61,51,32,Abstract_Concrete_6tasks_simseq_2seq_listtask_switchAB_fMRI,653150,12354,53142,3,15,95,A3,glasses,3,2@,67231.5610118,67389.5716526,158.010640799999,0,0
3393,3#,1,21,42,12,62,52,32,Abstract_Concrete_6tasks_simseq_2seq_listtask_switchAB_fMRI,653150,12354,53142,3,16,96,B4,weapon,5,3#,67231.5610118,67401.5731481,170.012136299993,0,0
2162,3#,1,22,41,11,62,51,32,Abstract_Concrete_6tasks_simseq_2seq_listtask_switchAB_fMRI,653150,12354,53142,3,17,97,A5,weapon,5,3#,67231.5610118,67412.5718847,181.010872899991,0,0
2120,3#,1,21,41,12,62,51,31,Abstract_Concrete_6tasks_simseq_2seq_listtask_switchAB_fMRI,653150,12354,53142,3,18,98,B4,weapon,5,3#,67231.5610118,67422.5737309,191.012719099992,0,0
2709,7&,1,21,41,12,62,51,31,Abstract_Concrete_6tasks_simseq_2seq_listtask_switchAB_fMRI,653150,12354,53142,3,19,99,A2,vest,2,7&,67231.5610118,67432.5722012,201.0111894,0,0
3194,9(,1,21,42,11,61,51,32,Abstract_Concrete_6tasks_simseq_2seq_listtask_switchAB_fMRI,653150,12354,53142,3,20,100,B3,helmet,1,9(,67231.5610118,67442.572711,211.011699199997,0,0
1510,3#,1,21,42,12,61,52,31,Abstract_Concrete_6tasks_simseq_2seq_listtask_switchAB_fMRI,653150,12354,53142,3,21,101,A5,weapon,5,3#,67231.5610118,67453.5729801,222.011968299994,0,0
3639,7&,1,22,41,11,61,51,31,Abstract_Concrete_6tasks_simseq_2seq_listtask_switchAB_fMRI,653150,12354,53142,3,22,102,B5,vest,2,7&,67231.5610118,67462.5712961,231.010284299991,0,0
1458,4$,1,21,42,11,61,51,31,Abstract_Concrete_6tasks_simseq_2seq_listtask_switchAB_fMRI,653150,12354,53142,3,23,103,A4,tools,6,4$,67231.5610118,67473.5723399,242.011328099994,0,0
1438,4$,1,22,41,12,61,52,32,Abstract_Concrete_6tasks_simseq_2seq_listtask_switchAB_fMRI,653150,12354,53142,3,24,104,B1,tools,6,4$,67231.5610118,67482.573087,251.012075199993,0,0
1501,4$,1,21,41,11,62,52,32,Abstract_Concrete_6tasks_simseq_2seq_listtask_switchAB_fMRI,653150,12354,53142,3,25,105,A4,tools,6,4$,67231.5610118,67491.5721483,260.01113649999,0,0
1637,7&,1,22,41,11,61,51,32,Abstract_Concrete_6tasks_simseq_2seq_listtask_switchAB_fMRI,653150,12354,53142,3,26,106,B5,vest,2,7&,67231.5610118,67500.5725768,269.011564999993,0,0
2141,9(,1,22,42,11,61,51,32,Abstract_Concrete_6tasks_simseq_2seq_listtask_switchAB_fMRI,653150,12354,53142,3,27,107,A1,helmet,1,9(,67231.5610118,67509.5715965,278.010584699994,0,0
1335,4$,1,22,41,12,61,52,31,Abstract_Concrete_6tasks_simseq_2seq_listtask_switchAB_fMRI,653150,12354,53142,3,28,108,B1,tools,6,4$,67231.5610118,67519.5752614,288.01424959999,0,0
4179,7&,1,21,41,12,62,52,32,Abstract_Concrete_6tasks_simseq_2seq_listtask_switchAB_fMRI,653150,12354,53142,3,29,109,A2,vest,2,7&,67231.5610118,67528.5745959,297.013584100001,0,0
1085,9(,1,22,42,11,62,51,32,Abstract_Concrete_6tasks_simseq_2seq_listtask_switchAB_fMRI,653150,12354,53142,3,30,110,B3,helmet,1,9(,67231.5610118,67540.5730746,309.0120628,0,0
1830,9(,1,22,41,12,62,52,32,Abstract_Concrete_6tasks_simseq_2seq_listtask_switchAB_fMRI,653150,12354,53142,3,31,111,A1,helmet,1,9(,67231.5610118,67549.5739901,318.012978300001,0,0
2302,7&,1,22,41,12,62,52,32,Abstract_Concrete_6tasks_simseq_2seq_listtask_switchAB_fMRI,653150,12354,53142,3,32,112,B5,vest,2,7&,67231.5610118,67558.5724954,327.011483599999,0,0
1568,3#,1,22,41,11,61,52,32,Abstract_Concrete_6tasks_simseq_2seq_listtask_switchAB_fMRI,653150,12354,53142,3,33,113,A5,weapon,5,3#,67231.5610118,67568.5716823,337.010670499993,0,0
1294,4$,1,21,42,12,61,52,32,Abstract_Concrete_6tasks_simseq_2seq_listtask_switchAB_fMRI,653150,12354,53142,3,34,114,B1,tools,6,4$,67231.5610118,67577.5744382,346.013426399993,0,0
1318,7&,1,21,41,12,61,52,31,Abstract_Concrete_6tasks_simseq_2seq_listtask_switchAB_fMRI,653150,12354,53142,3,35,115,A2,vest,2,7&,67231.5610118,67586.5720086,355.010996799989,0,0
4182,3#,1,21,42,11,62,51,31,Abstract_Concrete_6tasks_simseq_2seq_listtask_switchAB_fMRI,653150,12354,53142,3,36,116,B4,weapon,5,3#,67231.5610118,67595.5744512,364.013439399991,0,0
1371,9(,1,21,42,12,61,51,31,Abstract_Concrete_6tasks_simseq_2seq_listtask_switchAB_fMRI,653150,12354,53142,3,37,117,A1,helmet,1,9(,67231.5610118,67607.5739764,376.012964599999,0,0
1489,7&,1,22,41,11,62,52,32,Abstract_Concrete_6tasks_simseq_2seq_listtask_switchAB_fMRI,653150,12354,53142,3,38,118,B5,vest,2,7&,67231.5610118,67616.5736808,385.012668999989,0,0
2206,4$,1,22,42,12,62,51,32,Abstract_Concrete_6tasks_simseq_2seq_listtask_switchAB_fMRI,653150,12354,53142,3,39,119,A4,tools,6,4$,67231.5610118,67625.5741261,394.013114299989,0,0
1132,4$,1,22,42,11,62,51,32,Abstract_Concrete_6tasks_simseq_2seq_listtask_switchAB_fMRI,653150,12354,53142,3,40,120,B1,tools,6,4$,67231.5610118,67635.5730141,404.012002299991,0,0
2034,3#,1,22,41,11,61,52,31,Abstract_Concrete_6tasks_simseq_2seq_listtask_switchAB_fMRI,653150,12354,53142,4,1,121,A5,weapon,5,3#,67780.0472918,67788.0566234,8.0093315999984,0,0
3365,3#,1,21,41,11,61,52,31,Abstract_Concrete_6tasks_simseq_2seq_listtask_switchAB_fMRI,653150,12354,53142,4,2,122,B4,weapon,5,3#,67780.0472918,67798.0579721,18.0106802999944,0,0
2175,9(,1,21,41,12,62,51,31,Abstract_Concrete_6tasks_simseq_2seq_listtask_switchAB_fMRI,653150,12354,53142,4,3,123,A1,helmet,1,9(,67780.0472918,67809.0615812,29.0142894000019,0,0
2905,9(,1,21,41,12,61,51,31,Abstract_Concrete_6tasks_simseq_2seq_listtask_switchAB_fMRI,653150,12354,53142,4,4,124,B3,helmet,1,9(,67780.0472918,67819.0608102,39.0135183999955,0,0
1464,4$,1,22,42,11,62,51,32,Abstract_Concrete_6tasks_simseq_2seq_listtask_switchAB_fMRI,653150,12354,53142,4,5,125,A4,tools,6,4$,67780.0472918,67829.0602958,49.0130039999931,0,0
2142,4$,1,21,41,12,61,51,32,Abstract_Concrete_6tasks_simseq_2seq_listtask_switchAB_fMRI,653150,12354,53142,4,6,126,B1,tools,6,4$,67780.0472918,67838.0606351,58.013343300001,0,0
1146,2@,0,22,42,12,62,52,31,Abstract_Concrete_6tasks_simseq_2seq_listtask_switchAB_fMRI,653150,12354,53142,4,7,127,A2,vest,2,7&,67780.0472918,67848.0595703,68.0122784999985,67849.2204793,69.1731874999969
1424,9(,1,21,42,11,62,52,31,Abstract_Concrete_6tasks_simseq_2seq_listtask_switchAB_fMRI,653150,12354,53142,4,8,128,B3,helmet,1,9(,67780.0472918,67857.059822,77.0125301999942,0,0
1483,2@,1,22,42,12,61,51,32,Abstract_Concrete_6tasks_simseq_2seq_listtask_switchAB_fMRI,653150,12354,53142,4,9,129,A3,glasses,3,2@,67780.0472918,67866.0596654,86.012373599995,0,0
1738,9(,1,22,42,12,62,52,31,Abstract_Concrete_6tasks_simseq_2seq_listtask_switchAB_fMRI,653150,12354,53142,4,10,130,B3,helmet,1,9(,67780.0472918,67875.060553,95.0132612000016,0,0
3876,2@,1,21,41,12,62,51,32,Abstract_Concrete_6tasks_simseq_2seq_listtask_switchAB_fMRI,653150,12354,53142,4,11,131,A3,glasses,3,2@,67780.0472918,67884.0581155,104.010823699995,0,0
5068,3#,1,22,42,11,61,52,32,Abstract_Concrete_6tasks_simseq_2seq_listtask_switchAB_fMRI,653150,12354,53142,4,12,132,B4,weapon,5,3#,67780.0472918,67895.0604304,115.013138599999,0,0
2424,4$,1,22,41,12,62,51,32,Abstract_Concrete_6tasks_simseq_2seq_listtask_switchAB_fMRI,653150,12354,53142,4,13,133,A4,tools,6,4$,67780.0472918,67908.0606787,128.013386899998,0,0
3471,7&,1,21,42,11,61,52,31,Abstract_Concrete_6tasks_simseq_2seq_listtask_switchAB_fMRI,653150,12354,53142,4,14,134,B5,vest,2,7&,67780.0472918,67918.0595911,138.012299299997,0,0
4699,7&,1,22,42,12,61,52,31,Abstract_Concrete_6tasks_simseq_2seq_listtask_switchAB_fMRI,653150,12354,53142,4,15,135,A2,vest,2,7&,67780.0472918,67929.0600899,149.012798099997,0,0
1183,4$,1,22,42,12,61,52,32,Abstract_Concrete_6tasks_simseq_2seq_listtask_switchAB_fMRI,653150,12354,53142,4,16,136,B1,tools,6,4$,67780.0472918,67941.0585953,161.011303499996,0,0
3780,9(,1,21,41,12,61,52,32,Abstract_Concrete_6tasks_simseq_2seq_listtask_switchAB_fMRI,653150,12354,53142,4,17,137,A1,helmet,1,9(,67780.0472918,67950.0616792,170.014387399991,0,0
1157,4$,1,22,41,11,62,51,31,Abstract_Concrete_6tasks_simseq_2seq_listtask_switchAB_fMRI,653150,12354,53142,4,18,138,B1,tools,6,4$,67780.0472918,67961.0606129,181.013321099992,0,0
1952,7&,0,21,41,11,61,52,32,Abstract_Concrete_6tasks_simseq_2seq_listtask_switchAB_fMRI,653150,12354,53142,4,19,139,A5,weapon,5,3#,67780.0472918,67970.0601512,190.012859399998,67972.0232376,191.975945800004
1952,7&,1,21,42,11,62,52,31,Abstract_Concrete_6tasks_simseq_2seq_listtask_switchAB_fMRI,653150,12354,53142,4,20,140,B5,vest,2,7&,67780.0472918,67979.0589454,199.011653599999,0,0
3479,7&,1,21,42,11,62,52,31,Abstract_Concrete_6tasks_simseq_2seq_listtask_switchAB_fMRI,653150,12354,53142,4,21,141,A2,vest,2,7&,67780.0472918,67988.0583022,208.011010400005,0,0
2220,2@,1,21,42,11,62,52,32,Abstract_Concrete_6tasks_simseq_2seq_listtask_switchAB_fMRI,653150,12354,53142,4,22,142,B2,glasses,3,2@,67780.0472918,67999.0595,219.012208200002,0,0
1957,2@,1,22,42,12,62,51,32,Abstract_Concrete_6tasks_simseq_2seq_listtask_switchAB_fMRI,653150,12354,53142,4,23,143,A3,glasses,3,2@,67780.0472918,68009.0603216,229.0130298,0,0
1450,2@,1,21,41,11,62,52,31,Abstract_Concrete_6tasks_simseq_2seq_listtask_switchAB_fMRI,653150,12354,53142,4,24,144,B2,glasses,3,2@,67780.0472918,68018.0600133,238.012721499996,0,0
1431,3#,1,22,41,11,61,51,31,Abstract_Concrete_6tasks_simseq_2seq_listtask_switchAB_fMRI,653150,12354,53142,4,25,145,A5,weapon,5,3#,67780.0472918,68027.0601774,247.012885599994,0,0
3139,2@,1,22,42,11,62,52,32,Abstract_Concrete_6tasks_simseq_2seq_listtask_switchAB_fMRI,653150,12354,53142,4,26,146,B2,glasses,3,2@,67780.0472918,68036.0575957,256.010303899995,0,0
1441,4$,1,21,41,11,61,51,31,Abstract_Concrete_6tasks_simseq_2seq_listtask_switchAB_fMRI,653150,12354,53142,4,27,147,A4,tools,6,4$,67780.0472918,68047.0591303,267.011838499995,0,0
1251,4$,1,22,42,12,61,52,32,Abstract_Concrete_6tasks_simseq_2seq_listtask_switchAB_fMRI,653150,12354,53142,4,28,148,B1,tools,6,4$,67780.0472918,68056.0590421,276.011750299993,0,0
3202,3#,1,21,42,12,62,52,32,Abstract_Concrete_6tasks_simseq_2seq_listtask_switchAB_fMRI,653150,12354,53142,4,29,149,A5,weapon,5,3#,67780.0472918,68065.0578999,285.010608099998,0,0
2644,3#,1,22,41,11,61,52,32,Abstract_Concrete_6tasks_simseq_2seq_listtask_switchAB_fMRI,653150,12354,53142,4,30,150,B4,weapon,5,3#,67780.0472918,68076.0602751,296.012983299996,0,0
3070,7&,1,21,41,11,62,51,31,Abstract_Concrete_6tasks_simseq_2seq_listtask_switchAB_fMRI,653150,12354,53142,4,31,151,A2,vest,2,7&,67780.0472918,68086.0584481,306.011156299995,0,0
1157,2@,1,22,41,11,61,52,31,Abstract_Concrete_6tasks_simseq_2seq_listtask_switchAB_fMRI,653150,12354,53142,4,32,152,B2,glasses,3,2@,67780.0472918,68097.0582604,317.010968599992,0,0
3240,2@,1,22,41,11,62,52,31,Abstract_Concrete_6tasks_simseq_2seq_listtask_switchAB_fMRI,653150,12354,53142,4,33,153,A3,glasses,3,2@,67780.0472918,68106.0581385,326.010846699995,0,0
1845,7&,1,21,42,12,62,51,31,Abstract_Concrete_6tasks_simseq_2seq_listtask_switchAB_fMRI,653150,12354,53142,4,34,154,B5,vest,2,7&,67780.0472918,68117.0588788,337.011587000001,0,0
2469,4$,1,21,42,11,61,51,31,Abstract_Concrete_6tasks_simseq_2seq_listtask_switchAB_fMRI,653150,12354,53142,4,35,155,A4,tools,6,4$,67780.0472918,68126.0585774,346.011285600005,0,0
2369,7&,1,21,42,12,61,52,32,Abstract_Concrete_6tasks_simseq_2seq_listtask_switchAB_fMRI,653150,12354,53142,4,36,156,B5,vest,2,7&,67780.0472918,68136.0600611,356.012769299996,0,0
2615,9(,1,22,41,12,61,51,32,Abstract_Concrete_6tasks_simseq_2seq_listtask_switchAB_fMRI,653150,12354,53142,4,37,157,A1,helmet,1,9(,67780.0472918,68146.0587206,366.011428800004,0,0
2322,3#,1,22,41,12,61,52,32,Abstract_Concrete_6tasks_simseq_2seq_listtask_switchAB_fMRI,653150,12354,53142,4,38,158,B4,weapon,5,3#,67780.0472918,68156.0586509,376.011359099997,0,0
1900,9(,1,22,41,12,61,52,31,Abstract_Concrete_6tasks_simseq_2seq_listtask_switchAB_fMRI,653150,12354,53142,4,39,159,A1,helmet,1,9(,67780.0472918,68166.0574792,386.010187399996,0,0
2507,9(,1,22,42,11,61,51,31,Abstract_Concrete_6tasks_simseq_2seq_listtask_switchAB_fMRI,653150,12354,53142,4,40,160,B3,helmet,1,9(,67780.0472918,68175.0580707,395.010778900003,0,0
2797,7&,1,21,42,12,61,52,32,Abstract_Concrete_6tasks_simseq_2seq_listtask_switchAB_fMRI,653150,12354,53142,5,1,161,B5,vest,2,7&,68239.0200889,68247.0296761,8.00958720000926,0,0
3076,9(,1,22,42,11,61,52,31,Abstract_Concrete_6tasks_simseq_2seq_listtask_switchAB_fMRI,653150,12354,53142,5,2,162,A1,helmet,1,9(,68239.0200889,68257.0298297,18.0097408000001,0,0
1572,2@,1,21,42,11,61,51,32,Abstract_Concrete_6tasks_simseq_2seq_listtask_switchAB_fMRI,653150,12354,53142,5,3,163,B2,glasses,3,2@,68239.0200889,68268.0318584,29.0117695000081,0,0
1906,2@,1,22,41,11,61,51,31,Abstract_Concrete_6tasks_simseq_2seq_listtask_switchAB_fMRI,653150,12354,53142,5,4,164,A3,glasses,3,2@,68239.0200889,68277.0332037,38.0131148000073,0,0
2245,7&,1,21,41,12,61,51,31,Abstract_Concrete_6tasks_simseq_2seq_listtask_switchAB_fMRI,653150,12354,53142,5,5,165,B5,vest,2,7&,68239.0200889,68286.0312276,47.011138700007,0,0
3090,9(,1,21,42,12,62,51,31,Abstract_Concrete_6tasks_simseq_2seq_listtask_switchAB_fMRI,653150,12354,53142,5,6,166,A1,helmet,1,9(,68239.0200889,68296.0324365,57.0123476000008,0,0
1828,4$,1,21,42,12,62,52,31,Abstract_Concrete_6tasks_simseq_2seq_listtask_switchAB_fMRI,653150,12354,53142,5,7,167,B1,tools,6,4$,68239.0200889,68307.0320804,68.0119914999959,0,0
2478,4$,1,21,41,12,62,51,32,Abstract_Concrete_6tasks_simseq_2seq_listtask_switchAB_fMRI,653150,12354,53142,5,8,168,A4,tools,6,4$,68239.0200889,68316.0328739,77.012784999999,0,0
2836,9(,1,21,42,12,62,52,31,Abstract_Concrete_6tasks_simseq_2seq_listtask_switchAB_fMRI,653150,12354,53142,5,9,169,B3,helmet,1,9(,68239.0200889,68326.0337299,87.0136409999977,0,0
1794,3#,1,21,42,12,62,51,32,Abstract_Concrete_6tasks_simseq_2seq_listtask_switchAB_fMRI,653150,12354,53142,5,10,170,A5,weapon,5,3#,68239.0200889,68336.031896,97.0118071000034,0,0
1482,4$,1,22,41,12,62,51,32,Abstract_Concrete_6tasks_simseq_2seq_listtask_switchAB_fMRI,653150,12354,53142,5,11,171,B1,tools,6,4$,68239.0200889,68345.0339025,106.013813600002,0,0
3454,9(,1,21,41,11,61,52,31,Abstract_Concrete_6tasks_simseq_2seq_listtask_switchAB_fMRI,653150,12354,53142,5,12,172,A1,helmet,1,9(,68239.0200889,68354.0317618,115.0116729,0,0
2243,9(,1,21,41,12,61,51,31,Abstract_Concrete_6tasks_simseq_2seq_listtask_switchAB_fMRI,653150,12354,53142,5,13,173,B3,helmet,1,9(,68239.0200889,68365.0320053,126.011916400006,0,0
1441,9(,1,22,41,11,62,51,31,Abstract_Concrete_6tasks_simseq_2seq_listtask_switchAB_fMRI,653150,12354,53142,5,14,174,A1,helmet,1,9(,68239.0200889,68375.0311809,136.011092000001,0,0
1592,2@,1,21,41,11,61,51,31,Abstract_Concrete_6tasks_simseq_2seq_listtask_switchAB_fMRI,653150,12354,53142,5,15,175,B2,glasses,3,2@,68239.0200889,68384.0322276,145.012138699996,0,0
2702,4$,1,22,42,12,61,52,32,Abstract_Concrete_6tasks_simseq_2seq_listtask_switchAB_fMRI,653150,12354,53142,5,16,176,A4,tools,6,4$,68239.0200889,68393.0332112,154.013122300006,0,0
1368,9(,1,21,42,12,61,51,31,Abstract_Concrete_6tasks_simseq_2seq_listtask_switchAB_fMRI,653150,12354,53142,5,17,177,B3,helmet,1,9(,68239.0200889,68403.0310043,164.010915400009,0,0
1620,2@,1,21,41,11,62,51,32,Abstract_Concrete_6tasks_simseq_2seq_listtask_switchAB_fMRI,653150,12354,53142,5,18,178,A3,glasses,3,2@,68239.0200889,68412.0332253,173.013136399997,0,0
1454,2@,1,21,41,11,62,51,32,Abstract_Concrete_6tasks_simseq_2seq_listtask_switchAB_fMRI,653150,12354,53142,5,19,179,B2,glasses,3,2@,68239.0200889,68421.0318806,182.011791700003,0,0
3396,4$,1,22,41,11,61,52,31,Abstract_Concrete_6tasks_simseq_2seq_listtask_switchAB_fMRI,653150,12354,53142,5,20,180,A4,tools,6,4$,68239.0200889,68430.0331568,191.013067899999,0,0
2559,9(,1,22,41,11,62,51,32,Abstract_Concrete_6tasks_simseq_2seq_listtask_switchAB_fMRI,653150,12354,53142,5,21,181,B3,helmet,1,9(,68239.0200889,68441.0321844,202.012095500002,0,0
1357,3#,1,21,41,12,61,52,32,Abstract_Concrete_6tasks_simseq_2seq_listtask_switchAB_fMRI,653150,12354,53142,5,22,182,A5,weapon,5,3#,68239.0200889,68451.0330645,212.01297560001,0,0
1931,7&,1,22,41,12,62,52,31,Abstract_Concrete_6tasks_simseq_2seq_listtask_switchAB_fMRI,653150,12354,53142,5,23,183,B5,vest,2,7&,68239.0200889,68460.0327798,221.01269090001,0,0
1168,3#,1,21,42,11,62,52,31,Abstract_Concrete_6tasks_simseq_2seq_listtask_switchAB_fMRI,653150,12354,53142,5,24,184,A5,weapon,5,3#,68239.0200889,68469.0305022,230.010413299999,0,0
2020,3#,1,21,41,12,61,52,32,Abstract_Concrete_6tasks_simseq_2seq_listtask_switchAB_fMRI,653150,12354,53142,5,25,185,B4,weapon,5,3#,68239.0200889,68478.032667,239.01257810001,0,0
1246,4$,1,22,42,12,61,51,31,Abstract_Concrete_6tasks_simseq_2seq_listtask_switchAB_fMRI,653150,12354,53142,5,26,186,A4,tools,6,4$,68239.0200889,68488.0332177,249.013128799998,0,0
1587,2@,1,21,42,11,61,52,32,Abstract_Concrete_6tasks_simseq_2seq_listtask_switchAB_fMRI,653150,12354,53142,5,27,187,B2,glasses,3,2@,68239.0200889,68497.0310251,258.010936200008,0,0
1233,2@,1,21,41,12,62,52,31,Abstract_Concrete_6tasks_simseq_2seq_listtask_switchAB_fMRI,653150,12354,53142,5,28,188,A3,glasses,3,2@,68239.0200889,68506.0308375,267.010748600005,0,0
2477,3#,1,22,41,11,62,52,31,Abstract_Concrete_6tasks_simseq_2seq_listtask_switchAB_fMRI,653150,12354,53142,5,29,189,B4,weapon,5,3#,68239.0200889,68515.0325411,276.012452199997,0,0
2326,7&,1,22,41,12,62,51,31,Abstract_Concrete_6tasks_simseq_2seq_listtask_switchAB_fMRI,653150,12354,53142,5,30,190,A2,vest,2,7&,68239.0200889,68525.0314276,286.011338700002,0,0
1838,4$,1,21,41,12,61,52,31,Abstract_Concrete_6tasks_simseq_2seq_listtask_switchAB_fMRI,653150,12354,53142,5,31,191,B1,tools,6,4$,68239.0200889,68535.0328238,296.012734899996,0,0
1780,3#,1,22,41,12,61,52,32,Abstract_Concrete_6tasks_simseq_2seq_listtask_switchAB_fMRI,653150,12354,53142,5,32,192,A5,weapon,5,3#,68239.0200889,68544.0311643,305.011075400005,0,0
3435,3#,1,22,42,11,62,51,31,Abstract_Concrete_6tasks_simseq_2seq_listtask_switchAB_fMRI,653150,12354,53142,5,33,193,B4,weapon,5,3#,68239.0200889,68553.0325426,314.012453700008,0,0
2836,7&,1,22,42,11,61,51,32,Abstract_Concrete_6tasks_simseq_2seq_listtask_switchAB_fMRI,653150,12354,53142,5,34,194,A2,vest,2,7&,68239.0200889,68564.030693,325.010604099996,0,0
1086,4$,1,21,42,11,62,51,31,Abstract_Concrete_6tasks_simseq_2seq_listtask_switchAB_fMRI,653150,12354,53142,5,35,195,B1,tools,6,4$,68239.0200889,68574.0312582,335.011169300007,0,0
4394,7&,1,22,42,11,62,51,32,Abstract_Concrete_6tasks_simseq_2seq_listtask_switchAB_fMRI,653150,12354,53142,5,36,196,A2,vest,2,7&,68239.0200889,68583.0314823,344.011393399996,0,0
2418,7&,1,21,41,12,61,51,31,Abstract_Concrete_6tasks_simseq_2seq_listtask_switchAB_fMRI,653150,12354,53142,5,37,197,B5,vest,2,7&,68239.0200889,68595.0315572,356.011468299999,0,0
1636,7&,1,22,41,11,61,52,32,Abstract_Concrete_6tasks_simseq_2seq_listtask_switchAB_fMRI,653150,12354,53142,5,38,198,A2,vest,2,7&,68239.0200889,68605.0315564,366.011467500008,0,0
3007,3#,1,22,41,12,61,51,31,Abstract_Concrete_6tasks_simseq_2seq_listtask_switchAB_fMRI,653150,12354,53142,5,39,199,B4,weapon,5,3#,68239.0200889,68614.0303583,375.010269400009,0,0
1231,2@,1,22,42,11,61,52,32,Abstract_Concrete_6tasks_simseq_2seq_listtask_switchAB_fMRI,653150,12354,53142,5,40,200,A3,glasses,3,2@,68239.0200889,68625.0330249,386.012935999999,0,0
2371,4$,1,21,41,11,61,52,32,Abstract_Concrete_6tasks_simseq_2seq_listtask_switchAB_fMRI,653150,12354,53142,6,1,201,A4,tools,6,4$,68693.3343758,68701.345023,8.01064720000431,0,0
5642,3#,1,22,41,11,62,52,32,Abstract_Concrete_6tasks_simseq_2seq_listtask_switchAB_fMRI,653150,12354,53142,6,2,202,B4,weapon,5,3#,68693.3343758,68711.34416,18.0097841999959,0,0
1636,9(,1,22,42,12,61,52,32,Abstract_Concrete_6tasks_simseq_2seq_listtask_switchAB_fMRI,653150,12354,53142,6,3,203,A1,helmet,1,9(,68693.3343758,68724.3482389,31.0138631000009,0,0
1766,4$,1,21,42,11,61,51,31,Abstract_Concrete_6tasks_simseq_2seq_listtask_switchAB_fMRI,653150,12354,53142,6,4,204,B1,tools,6,4$,68693.3343758,68733.3462882,40.0119124000048,0,0
1585,7&,1,22,42,11,62,51,31,Abstract_Concrete_6tasks_simseq_2seq_listtask_switchAB_fMRI,653150,12354,53142,6,5,205,A2,vest,2,7&,68693.3343758,68742.3453798,49.011004,0,0
976,4$,1,22,41,12,62,51,32,Abstract_Concrete_6tasks_simseq_2seq_listtask_switchAB_fMRI,653150,12354,53142,6,6,206,B1,tools,6,4$,68693.3343758,68751.3466549,58.0122791000031,0,0
4993,4$,1,21,42,12,61,52,31,Abstract_Concrete_6tasks_simseq_2seq_listtask_switchAB_fMRI,653150,12354,53142,6,7,207,A4,tools,6,4$,68693.3343758,68759.3450612,66.0106854000041,0,0
2008,2@,1,22,42,12,61,51,32,Abstract_Concrete_6tasks_simseq_2seq_listtask_switchAB_fMRI,653150,12354,53142,6,8,208,B2,glasses,3,2@,68693.3343758,68772.3478504,79.0134745999967,0,0
1247,3#,1,21,42,12,62,51,31,Abstract_Concrete_6tasks_simseq_2seq_listtask_switchAB_fMRI,653150,12354,53142,6,9,209,A5,weapon,5,3#,68693.3343758,68782.3458254,89.0114496000024,0,0
1792,3#,1,21,42,11,62,51,31,Abstract_Concrete_6tasks_simseq_2seq_listtask_switchAB_fMRI,653150,12354,53142,6,10,210,B4,weapon,5,3#,68693.3343758,68791.3459629,98.0115871000016,0,0
4256,2@,1,22,41,12,61,52,32,Abstract_Concrete_6tasks_simseq_2seq_listtask_switchAB_fMRI,653150,12354,53142,6,11,211,A3,glasses,3,2@,68693.3343758,68800.3462461,107.011870300004,0,0
3658,9(,1,22,41,11,61,52,31,Abstract_Concrete_6tasks_simseq_2seq_listtask_switchAB_fMRI,653150,12354,53142,6,12,212,B3,helmet,1,9(,68693.3343758,68812.346563,119.012187200002,0,0
1090,3#,1,22,41,12,61,52,32,Abstract_Concrete_6tasks_simseq_2seq_listtask_switchAB_fMRI,653150,12354,53142,6,13,213,A5,weapon,5,3#,68693.3343758,68823.3476016,130.013225800009,0,0
2377,7&,1,21,42,11,62,51,32,Abstract_Concrete_6tasks_simseq_2seq_listtask_switchAB_fMRI,653150,12354,53142,6,14,214,B5,vest,2,7&,68693.3343758,68832.3481779,139.013802100002,0,0
1367,4$,1,22,41,12,62,52,32,Abstract_Concrete_6tasks_simseq_2seq_listtask_switchAB_fMRI,653150,12354,53142,6,15,215,A4,tools,6,4$,68693.3343758,68842.3457432,149.011367400002,0,0
1565,2@,1,22,42,12,62,52,31,Abstract_Concrete_6tasks_simseq_2seq_listtask_switchAB_fMRI,653150,12354,53142,6,16,216,B2,glasses,3,2@,68693.3343758,68851.3466773,158.012301499999,0,0
1663,2@,1,22,41,12,62,51,32,Abstract_Concrete_6tasks_simseq_2seq_listtask_switchAB_fMRI,653150,12354,53142,6,17,217,A3,glasses,3,2@,68693.3343758,68860.3506874,167.016311600004,0,0
2627,9(,1,22,42,12,62,51,31,Abstract_Concrete_6tasks_simseq_2seq_listtask_switchAB_fMRI,653150,12354,53142,6,18,218,B3,helmet,1,9(,68693.3343758,68869.3473855,176.013009700007,0,0
2151,2@,1,21,42,11,62,52,31,Abstract_Concrete_6tasks_simseq_2seq_listtask_switchAB_fMRI,653150,12354,53142,6,19,219,A3,glasses,3,2@,68693.3343758,68879.3461325,186.011756699998,0,0
2794,7&,1,22,41,12,62,51,31,Abstract_Concrete_6tasks_simseq_2seq_listtask_switchAB_fMRI,653150,12354,53142,6,20,220,B5,vest,2,7&,68693.3343758,68889.347513,196.013137200003,0,0
3681,9(,1,21,41,11,61,51,32,Abstract_Concrete_6tasks_simseq_2seq_listtask_switchAB_fMRI,653150,12354,53142,6,21,221,A1,helmet,1,9(,68693.3343758,68899.3459549,206.011579099999,0,0
1456,7&,1,21,41,11,61,52,31,Abstract_Concrete_6tasks_simseq_2seq_listtask_switchAB_fMRI,653150,12354,53142,6,22,222,B5,vest,2,7&,68693.3343758,68910.3459041,217.011528300005,0,0
1533,7&,1,22,41,12,61,52,31,Abstract_Concrete_6tasks_simseq_2seq_listtask_switchAB_fMRI,653150,12354,53142,6,23,223,A2,vest,2,7&,68693.3343758,68919.3486006,226.014224800005,0,0
1364,4$,1,22,42,12,61,51,32,Abstract_Concrete_6tasks_simseq_2seq_listtask_switchAB_fMRI,653150,12354,53142,6,24,224,B1,tools,6,4$,68693.3343758,68928.3472771,235.012901299997,0,0
2500,9(,1,21,41,11,62,52,31,Abstract_Concrete_6tasks_simseq_2seq_listtask_switchAB_fMRI,653150,12354,53142,6,25,225,A1,helmet,1,9(,68693.3343758,68937.3457229,244.011347100008,0,0
1431,7&,1,22,41,11,61,51,31,Abstract_Concrete_6tasks_simseq_2seq_listtask_switchAB_fMRI,653150,12354,53142,6,26,226,B5,vest,2,7&,68693.3343758,68947.3466431,254.012267300001,0,0
1925,7&,1,21,42,11,62,51,31,Abstract_Concrete_6tasks_simseq_2seq_listtask_switchAB_fMRI,653150,12354,53142,6,27,227,A2,vest,2,7&,68693.3343758,68956.3456041,263.011228300005,0,0
3799,9(,1,22,41,12,62,51,31,Abstract_Concrete_6tasks_simseq_2seq_listtask_switchAB_fMRI,653150,12354,53142,6,28,228,B3,helmet,1,9(,68693.3343758,68965.3454694,272.011093599998,0,0
2257,9(,1,21,42,11,62,51,31,Abstract_Concrete_6tasks_simseq_2seq_listtask_switchAB_fMRI,653150,12354,53142,6,29,229,A1,helmet,1,9(,68693.3343758,68976.3454904,283.011114599998,0,0
2592,3#,1,21,41,11,62,52,31,Abstract_Concrete_6tasks_simseq_2seq_listtask_switchAB_fMRI,653150,12354,53142,6,30,230,B4,weapon,5,3#,68693.3343758,68986.345203,293.010827200007,0,0
1836,7&,1,21,42,12,62,51,31,Abstract_Concrete_6tasks_simseq_2seq_listtask_switchAB_fMRI,653150,12354,53142,6,31,231,A2,vest,2,7&,68693.3343758,68996.3463631,303.011987300008,0,0
2596,2@,1,22,41,12,61,51,32,Abstract_Concrete_6tasks_simseq_2seq_listtask_switchAB_fMRI,653150,12354,53142,6,32,232,B2,glasses,3,2@,68693.3343758,69005.3467074,312.012331599995,0,0
1403,3#,1,22,41,11,62,51,32,Abstract_Concrete_6tasks_simseq_2seq_listtask_switchAB_fMRI,653150,12354,53142,6,33,233,A5,weapon,5,3#,68693.3343758,69015.3458838,322.011507999996,0,0
5949,2@,1,21,41,12,62,51,32,Abstract_Concrete_6tasks_simseq_2seq_listtask_switchAB_fMRI,653150,12354,53142,6,34,234,B2,glasses,3,2@,68693.3343758,69024.3471838,331.012807999999,0,0
1167,4$,1,21,41,12,62,51,31,Abstract_Concrete_6tasks_simseq_2seq_listtask_switchAB_fMRI,653150,12354,53142,6,35,235,A4,tools,6,4$,68693.3343758,69037.3463717,344.0119959,0,0
2108,9(,1,22,41,12,61,52,32,Abstract_Concrete_6tasks_simseq_2seq_listtask_switchAB_fMRI,653150,12354,53142,6,36,236,B3,helmet,1,9(,68693.3343758,69046.3472382,353.012862400006,0,0
1479,2@,1,22,41,12,62,52,31,Abstract_Concrete_6tasks_simseq_2seq_listtask_switchAB_fMRI,653150,12354,53142,6,37,237,A3,glasses,3,2@,68693.3343758,69056.3460586,363.011682800003,0,0
1192,4$,1,21,42,12,61,52,32,Abstract_Concrete_6tasks_simseq_2seq_listtask_switchAB_fMRI,653150,12354,53142,6,38,238,B1,tools,6,4$,68693.3343758,69065.3467717,372.012395900005,0,0
1234,3#,1,22,42,11,61,52,31,Abstract_Concrete_6tasks_simseq_2seq_listtask_switchAB_fMRI,653150,12354,53142,6,39,239,A5,weapon,5,3#,68693.3343758,69074.347064,381.012688200004,0,0
2068,3#,1,22,42,11,62,51,31,Abstract_Concrete_6tasks_simseq_2seq_listtask_switchAB_fMRI,653150,12354,53142,6,40,240,B4,weapon,5,3#,68693.3343758,69083.3450848,390.010709000009,0,0
