rt1,resp1,correct1,features_1,features_2,features_3,features_4,features_5,features_6,ExpName,subNo,seqA,seqB,block,trial,trialnum,cuetype,task,subtaskcode,corr_resp1,onsetTime_s,onsetTime_cue,onset_cue,onsetTime_cue_fb,onset_cue_fb
6872,9(,1,51,11,22,41,62,31,Abstract_Concrete_6tasks_simseq_2seq_listtask_switchAB_fMRI,681160,43521,25413,1,1,1,A4,vest,2,9(,3743.1802713,3751.2020227,8.02175139999963,0,0
3318,7&,1,52,11,22,42,61,31,Abstract_Concrete_6tasks_simseq_2seq_listtask_switchAB_fMRI,681160,43521,25413,1,2,2,B3,weapon,5,7&,3743.1802713,3765.1938513,22.0135799999998,0,0
2836,2@,1,52,12,22,42,62,32,Abstract_Concrete_6tasks_simseq_2seq_listtask_switchAB_fMRI,681160,43521,25413,1,3,3,A2,glasses,3,2@,3743.1802713,3776.2149086,33.0346372999998,0,0
3726,8*,1,51,11,21,41,62,32,Abstract_Concrete_6tasks_simseq_2seq_listtask_switchAB_fMRI,681160,43521,25413,1,4,4,B4,helmet,1,8*,3743.1802713,3786.1944082,43.0141368999998,0,0
4957,3#,1,52,11,21,41,61,31,Abstract_Concrete_6tasks_simseq_2seq_listtask_switchAB_fMRI,681160,43521,25413,1,5,5,A3,tools,6,3#,3743.1802713,3797.1951234,54.0148520999996,0,0
5676,3#,1,52,12,21,42,62,31,Abstract_Concrete_6tasks_simseq_2seq_listtask_switchAB_fMRI,681160,43521,25413,1,6,6,B2,tools,6,3#,3743.1802713,3809.1923843,66.0121129999998,0,0
2108,3#,1,52,12,22,42,62,31,Abstract_Concrete_6tasks_simseq_2seq_listtask_switchAB_fMRI,681160,43521,25413,1,7,7,A3,tools,6,3#,3743.1802713,3822.1941286,79.0138572999999,0,0
2882,8*,0,51,12,22,42,61,32,Abstract_Concrete_6tasks_simseq_2seq_listtask_switchAB_fMRI,681160,43521,25413,1,8,8,B1,vest,2,9(,3743.1802713,3832.2151125,89.0348411999998,3835.1127055,91.9324342
2463,3#,1,52,11,22,42,62,31,Abstract_Concrete_6tasks_simseq_2seq_listtask_switchAB_fMRI,681160,43521,25413,1,9,9,A3,tools,6,3#,3743.1802713,3842.2038325,99.0235611999997,0,0
4863,3#,1,51,12,22,42,62,31,Abstract_Concrete_6tasks_simseq_2seq_listtask_switchAB_fMRI,681160,43521,25413,1,10,10,B2,tools,6,3#,3743.1802713,3852.1982839,109.0180126,0,0
2518,7&,1,52,12,22,42,62,31,Abstract_Concrete_6tasks_simseq_2seq_listtask_switchAB_fMRI,681160,43521,25413,1,11,11,A1,weapon,5,7&,3743.1802713,3864.1970594,121.0167881,0,0
4628,2@,1,52,12,21,41,61,31,Abstract_Concrete_6tasks_simseq_2seq_listtask_switchAB_fMRI,681160,43521,25413,1,12,12,B5,glasses,3,2@,3743.1802713,3874.1985911,131.0183198,0,0
4473,9(,1,52,12,22,41,61,31,Abstract_Concrete_6tasks_simseq_2seq_listtask_switchAB_fMRI,681160,43521,25413,1,13,13,A4,vest,2,9(,3743.1802713,3886.200434,143.0201627,0,0
3329,8*,1,52,12,21,41,62,32,Abstract_Concrete_6tasks_simseq_2seq_listtask_switchAB_fMRI,681160,43521,25413,1,14,14,B4,helmet,1,8*,3743.1802713,3898.200122,155.0198507,0,0
5648,9(,1,51,12,22,42,62,32,Abstract_Concrete_6tasks_simseq_2seq_listtask_switchAB_fMRI,681160,43521,25413,1,15,15,A4,vest,2,9(,3743.1802713,3909.1982489,166.0179776,0,0
4131,7&,1,51,12,22,42,62,32,Abstract_Concrete_6tasks_simseq_2seq_listtask_switchAB_fMRI,681160,43521,25413,1,16,16,B3,weapon,5,7&,3743.1802713,3922.193328,179.0130567,0,0
2752,3#,1,52,11,22,42,61,31,Abstract_Concrete_6tasks_simseq_2seq_listtask_switchAB_fMRI,681160,43521,25413,1,17,17,A3,tools,6,3#,3743.1802713,3934.2009382,191.0206669,0,0
3766,2@,1,51,12,22,42,61,32,Abstract_Concrete_6tasks_simseq_2seq_listtask_switchAB_fMRI,681160,43521,25413,1,18,18,B5,glasses,3,2@,3743.1802713,3944.202753,201.0224817,0,0
4897,9(,0,51,12,22,42,62,31,Abstract_Concrete_6tasks_simseq_2seq_listtask_switchAB_fMRI,681160,43521,25413,1,19,19,A1,weapon,5,7&,3743.1802713,3955.2017777,212.0215064,3960.1138711,216.9335998
4340,9(,1,52,12,22,41,61,32,Abstract_Concrete_6tasks_simseq_2seq_listtask_switchAB_fMRI,681160,43521,25413,1,20,20,B1,vest,2,9(,3743.1802713,3967.1989756,224.0187043,0,0
5333,8*,1,51,11,21,41,62,31,Abstract_Concrete_6tasks_simseq_2seq_listtask_switchAB_fMRI,681160,43521,25413,1,21,21,A5,helmet,1,8*,3743.1802713,3979.1974357,236.0171644,0,0
3233,8*,1,52,11,22,42,61,32,Abstract_Concrete_6tasks_simseq_2seq_listtask_switchAB_fMRI,681160,43521,25413,1,22,22,B4,helmet,1,8*,3743.1802713,3992.204097,249.0238257,0,0
5845,8*,1,51,12,21,42,61,32,Abstract_Concrete_6tasks_simseq_2seq_listtask_switchAB_fMRI,681160,43521,25413,1,23,23,A5,helmet,1,8*,3743.1802713,4003.2055495,260.0252782,0,0
3100,2@,1,52,12,21,42,61,31,Abstract_Concrete_6tasks_simseq_2seq_listtask_switchAB_fMRI,681160,43521,25413,1,24,24,B5,glasses,3,2@,3743.1802713,4016.2028693,273.022598,0,0
4467,8*,1,51,11,21,42,61,32,Abstract_Concrete_6tasks_simseq_2seq_listtask_switchAB_fMRI,681160,43521,25413,1,25,25,A5,helmet,1,8*,3743.1802713,4027.2055618,284.0252905,0,0
1966,9(,1,51,12,21,42,61,32,Abstract_Concrete_6tasks_simseq_2seq_listtask_switchAB_fMRI,681160,43521,25413,1,26,26,B1,vest,2,9(,3743.1802713,4039.1904821,296.0102108,0,0
3914,7&,1,52,11,22,42,61,32,Abstract_Concrete_6tasks_simseq_2seq_listtask_switchAB_fMRI,681160,43521,25413,1,27,27,A1,weapon,5,7&,3743.1802713,4048.2027011,305.0224298,0,0
2463,7&,1,51,12,22,42,62,31,Abstract_Concrete_6tasks_simseq_2seq_listtask_switchAB_fMRI,681160,43521,25413,1,28,28,B3,weapon,5,7&,3743.1802713,4059.2043959,316.0241246,0,0
3019,9(,1,52,12,22,42,62,31,Abstract_Concrete_6tasks_simseq_2seq_listtask_switchAB_fMRI,681160,43521,25413,1,29,29,A4,vest,2,9(,3743.1802713,4069.194025,326.0137537,0,0
2415,7&,1,51,11,22,41,62,32,Abstract_Concrete_6tasks_simseq_2seq_listtask_switchAB_fMRI,681160,43521,25413,1,30,30,B3,weapon,5,7&,3743.1802713,4080.1994731,337.0192018,0,0
2389,7&,1,52,12,22,42,62,32,Abstract_Concrete_6tasks_simseq_2seq_listtask_switchAB_fMRI,681160,43521,25413,1,31,31,A1,weapon,5,7&,3743.1802713,4090.1916895,347.0114182,0,0
3214,8*,1,51,12,22,41,62,31,Abstract_Concrete_6tasks_simseq_2seq_listtask_switchAB_fMRI,681160,43521,25413,1,32,32,B4,helmet,1,8*,3743.1802713,4100.193375,357.0131037,0,0
2967,2@,1,51,12,22,42,61,32,Abstract_Concrete_6tasks_simseq_2seq_listtask_switchAB_fMRI,681160,43521,25413,1,33,33,A2,glasses,3,2@,3743.1802713,4111.1921932,368.011921899999,0,0
2514,3#,1,51,12,21,41,61,31,Abstract_Concrete_6tasks_simseq_2seq_listtask_switchAB_fMRI,681160,43521,25413,1,34,34,B2,tools,6,3#,3743.1802713,4121.1932689,378.012997599999,0,0
4557,8*,1,52,12,21,41,62,32,Abstract_Concrete_6tasks_simseq_2seq_listtask_switchAB_fMRI,681160,43521,25413,1,35,35,A5,helmet,1,8*,3743.1802713,4131.1914132,388.0111419,0,0
3167,3#,1,51,11,21,41,62,31,Abstract_Concrete_6tasks_simseq_2seq_listtask_switchAB_fMRI,681160,43521,25413,1,36,36,B2,tools,6,3#,3743.1802713,4143.1934681,400.0131968,0,0
3035,2@,1,52,12,22,42,61,32,Abstract_Concrete_6tasks_simseq_2seq_listtask_switchAB_fMRI,681160,43521,25413,1,37,37,A2,glasses,3,2@,3743.1802713,4154.192498,411.0122267,0,0
2766,9(,1,52,11,21,42,61,31,Abstract_Concrete_6tasks_simseq_2seq_listtask_switchAB_fMRI,681160,43521,25413,1,38,38,B1,vest,2,9(,3743.1802713,4165.1927045,422.0124332,0,0
1887,2@,1,52,11,22,42,62,31,Abstract_Concrete_6tasks_simseq_2seq_listtask_switchAB_fMRI,681160,43521,25413,1,39,39,A2,glasses,3,2@,3743.1802713,4175.1962417,432.0159704,0,0
3665,2@,1,51,12,21,41,62,31,Abstract_Concrete_6tasks_simseq_2seq_listtask_switchAB_fMRI,681160,43521,25413,1,40,40,B5,glasses,3,2@,3743.1802713,4184.1944345,441.0141632,0,0
2964,7&,1,51,11,21,41,61,32,Abstract_Concrete_6tasks_simseq_2seq_listtask_switchAB_fMRI,681160,43521,25413,2,1,41,A1,weapon,5,7&,4246.1325975,4254.1610672,8.02846969999973,0,0
3272,8*,1,52,12,22,41,61,32,Abstract_Concrete_6tasks_simseq_2seq_listtask_switchAB_fMRI,681160,43521,25413,2,2,42,B4,helmet,1,8*,4246.1325975,4264.148174,18.0155765,0,0
1860,7&,1,51,11,21,42,61,31,Abstract_Concrete_6tasks_simseq_2seq_listtask_switchAB_fMRI,681160,43521,25413,2,3,43,A1,weapon,5,7&,4246.1325975,4275.1465612,29.0139637000002,0,0
1542,9(,1,51,11,22,41,62,32,Abstract_Concrete_6tasks_simseq_2seq_listtask_switchAB_fMRI,681160,43521,25413,2,4,44,B1,vest,2,9(,4246.1325975,4284.1642579,38.0316604,0,0
3173,3#,1,51,12,21,41,62,32,Abstract_Concrete_6tasks_simseq_2seq_listtask_switchAB_fMRI,681160,43521,25413,2,5,45,A3,tools,6,3#,4246.1325975,4293.1468191,47.0142216000004,0,0
3880,2@,1,51,12,21,41,62,31,Abstract_Concrete_6tasks_simseq_2seq_listtask_switchAB_fMRI,681160,43521,25413,2,6,46,B5,glasses,3,2@,4246.1325975,4304.1498854,58.0172879000002,0,0
2789,8*,1,51,12,22,42,61,31,Abstract_Concrete_6tasks_simseq_2seq_listtask_switchAB_fMRI,681160,43521,25413,2,7,47,A5,helmet,1,8*,4246.1325975,4315.1487615,69.0161639999997,0,0
4881,3#,1,51,11,22,42,62,32,Abstract_Concrete_6tasks_simseq_2seq_listtask_switchAB_fMRI,681160,43521,25413,2,8,48,B2,tools,6,3#,4246.1325975,4325.1478098,79.0152122999998,0,0
2764,2@,1,51,11,21,41,62,31,Abstract_Concrete_6tasks_simseq_2seq_listtask_switchAB_fMRI,681160,43521,25413,2,9,49,A2,glasses,3,2@,4246.1325975,4337.1491228,91.0165253000005,0,0
2902,8*,1,52,12,21,42,61,32,Abstract_Concrete_6tasks_simseq_2seq_listtask_switchAB_fMRI,681160,43521,25413,2,10,50,B4,helmet,1,8*,4246.1325975,4347.1484356,101.0158381,0,0
2053,2@,1,52,12,21,41,62,31,Abstract_Concrete_6tasks_simseq_2seq_listtask_switchAB_fMRI,681160,43521,25413,2,11,51,A2,glasses,3,2@,4246.1325975,4357.166402,111.0338045,0,0
1590,9(,1,52,11,21,42,62,32,Abstract_Concrete_6tasks_simseq_2seq_listtask_switchAB_fMRI,681160,43521,25413,2,12,52,B1,vest,2,9(,4246.1325975,4367.1496621,121.0170646,0,0
2174,2@,0,52,11,21,42,61,31,Abstract_Concrete_6tasks_simseq_2seq_listtask_switchAB_fMRI,681160,43521,25413,2,13,53,A5,helmet,1,8*,4246.1325975,4376.1673772,130.0347797,4378.3562929,132.2236954
2472,3#,1,52,11,21,41,61,32,Abstract_Concrete_6tasks_simseq_2seq_listtask_switchAB_fMRI,681160,43521,25413,2,14,54,B2,tools,6,3#,4246.1325975,4386.1538762,140.0212787,0,0
2667,7&,1,52,11,21,42,61,32,Abstract_Concrete_6tasks_simseq_2seq_listtask_switchAB_fMRI,681160,43521,25413,2,15,55,A1,weapon,5,7&,4246.1325975,4396.1704301,150.0378326,0,0
1994,3#,1,52,12,22,41,62,32,Abstract_Concrete_6tasks_simseq_2seq_listtask_switchAB_fMRI,681160,43521,25413,2,16,56,B2,tools,6,3#,4246.1325975,4406.152855,160.0202575,0,0
3484,7&,1,52,12,21,41,62,31,Abstract_Concrete_6tasks_simseq_2seq_listtask_switchAB_fMRI,681160,43521,25413,2,17,57,A1,weapon,5,7&,4246.1325975,4416.1576457,170.0250482,0,0
2543,7&,1,52,11,22,41,61,31,Abstract_Concrete_6tasks_simseq_2seq_listtask_switchAB_fMRI,681160,43521,25413,2,18,58,B3,weapon,5,7&,4246.1325975,4427.1714621,181.0388646,0,0
2750,9(,1,51,12,22,42,62,31,Abstract_Concrete_6tasks_simseq_2seq_listtask_switchAB_fMRI,681160,43521,25413,2,19,59,A4,vest,2,9(,4246.1325975,4437.149526,191.0169285,0,0
2367,7&,1,51,12,22,42,62,31,Abstract_Concrete_6tasks_simseq_2seq_listtask_switchAB_fMRI,681160,43521,25413,2,20,60,B3,weapon,5,7&,4246.1325975,4447.1572319,201.0246344,0,0
2596,3#,1,51,11,21,41,61,32,Abstract_Concrete_6tasks_simseq_2seq_listtask_switchAB_fMRI,681160,43521,25413,2,21,61,A3,tools,6,3#,4246.1325975,4457.154765,211.0221675,0,0
3754,2@,1,51,12,22,42,61,32,Abstract_Concrete_6tasks_simseq_2seq_listtask_switchAB_fMRI,681160,43521,25413,2,22,62,B5,glasses,3,2@,4246.1325975,4467.1502324,221.0176349,0,0
4079,8*,1,51,12,21,41,62,32,Abstract_Concrete_6tasks_simseq_2seq_listtask_switchAB_fMRI,681160,43521,25413,2,23,63,A5,helmet,1,8*,4246.1325975,4478.1506491,232.0180516,0,0
2403,8*,1,51,11,22,41,61,31,Abstract_Concrete_6tasks_simseq_2seq_listtask_switchAB_fMRI,681160,43521,25413,2,24,64,B4,helmet,1,8*,4246.1325975,4490.1500668,244.0174693,0,0
2878,3#,1,51,11,21,41,61,31,Abstract_Concrete_6tasks_simseq_2seq_listtask_switchAB_fMRI,681160,43521,25413,2,25,65,A3,tools,6,3#,4246.1325975,4500.1539857,254.0213882,0,0
4040,7&,1,52,12,22,42,61,32,Abstract_Concrete_6tasks_simseq_2seq_listtask_switchAB_fMRI,681160,43521,25413,2,26,66,B3,weapon,5,7&,4246.1325975,4510.1441361,264.0115386,0,0
2125,2@,1,51,12,22,42,62,32,Abstract_Concrete_6tasks_simseq_2seq_listtask_switchAB_fMRI,681160,43521,25413,2,27,67,A2,glasses,3,2@,4246.1325975,4522.1465698,276.0139723,0,0
1939,7&,1,51,11,22,42,61,32,Abstract_Concrete_6tasks_simseq_2seq_listtask_switchAB_fMRI,681160,43521,25413,2,28,68,B3,weapon,5,7&,4246.1325975,4532.15621,286.0236125,0,0
1704,2@,1,52,12,21,42,61,32,Abstract_Concrete_6tasks_simseq_2seq_listtask_switchAB_fMRI,681160,43521,25413,2,29,69,A2,glasses,3,2@,4246.1325975,4541.1564139,295.0238164,0,0
2459,3#,1,51,12,22,42,61,32,Abstract_Concrete_6tasks_simseq_2seq_listtask_switchAB_fMRI,681160,43521,25413,2,30,70,B2,tools,6,3#,4246.1325975,4550.1507311,304.0181336,0,0
2125,8*,1,52,11,22,42,62,31,Abstract_Concrete_6tasks_simseq_2seq_listtask_switchAB_fMRI,681160,43521,25413,2,31,71,A5,helmet,1,8*,4246.1325975,4560.143473,314.0108755,0,0
3423,9(,1,52,12,22,42,61,32,Abstract_Concrete_6tasks_simseq_2seq_listtask_switchAB_fMRI,681160,43521,25413,2,32,72,B1,vest,2,9(,4246.1325975,4570.1537017,324.0211042,0,0
4197,9(,1,52,12,22,41,61,32,Abstract_Concrete_6tasks_simseq_2seq_listtask_switchAB_fMRI,681160,43521,25413,2,33,73,A4,vest,2,9(,4246.1325975,4581.1564667,335.0238692,0,0
2533,2@,1,52,12,22,42,62,32,Abstract_Concrete_6tasks_simseq_2seq_listtask_switchAB_fMRI,681160,43521,25413,2,34,74,B5,glasses,3,2@,4246.1325975,4593.146367,347.0137695,0,0
2621,3#,1,52,12,22,42,61,32,Abstract_Concrete_6tasks_simseq_2seq_listtask_switchAB_fMRI,681160,43521,25413,2,35,75,A3,tools,6,3#,4246.1325975,4603.1459833,357.0133858,0,0
3164,2@,1,52,11,22,41,61,32,Abstract_Concrete_6tasks_simseq_2seq_listtask_switchAB_fMRI,681160,43521,25413,2,36,76,B5,glasses,3,2@,4246.1325975,4613.1594305,367.026833,0,0
3447,9(,1,52,11,22,41,61,31,Abstract_Concrete_6tasks_simseq_2seq_listtask_switchAB_fMRI,681160,43521,25413,2,37,77,A4,vest,2,9(,4246.1325975,4624.1454112,378.0128137,0,0
2103,8*,1,52,12,21,41,62,31,Abstract_Concrete_6tasks_simseq_2seq_listtask_switchAB_fMRI,681160,43521,25413,2,38,78,B4,helmet,1,8*,4246.1325975,4635.144709,389.0121115,0,0
2467,9(,1,51,11,22,41,61,32,Abstract_Concrete_6tasks_simseq_2seq_listtask_switchAB_fMRI,681160,43521,25413,2,39,79,A4,vest,2,9(,4246.1325975,4645.1457761,399.0131786,0,0
2960,9(,1,52,11,21,41,61,31,Abstract_Concrete_6tasks_simseq_2seq_listtask_switchAB_fMRI,681160,43521,25413,2,40,80,B1,vest,2,9(,4246.1325975,4655.1504598,409.0178623,0,0
3318,8*,1,51,11,22,42,61,31,Abstract_Concrete_6tasks_simseq_2seq_listtask_switchAB_fMRI,681160,43521,25413,3,1,81,B4,helmet,1,8*,4723.5737655,4731.594961,8.02119549999952,0,0
2457,3#,1,52,11,22,42,62,31,Abstract_Concrete_6tasks_simseq_2seq_listtask_switchAB_fMRI,681160,43521,25413,3,2,82,A3,tools,6,3#,4723.5737655,4742.586044,19.0122784999994,0,0
2089,8*,1,52,11,22,41,61,31,Abstract_Concrete_6tasks_simseq_2seq_listtask_switchAB_fMRI,681160,43521,25413,3,3,83,B4,helmet,1,8*,4723.5737655,4752.5863501,29.0125846000001,0,0
3914,8*,1,52,12,21,42,61,32,Abstract_Concrete_6tasks_simseq_2seq_listtask_switchAB_fMRI,681160,43521,25413,3,4,84,A5,helmet,1,8*,4723.5737655,4762.591539,39.0177734999997,0,0
2276,7&,1,52,11,21,41,61,31,Abstract_Concrete_6tasks_simseq_2seq_listtask_switchAB_fMRI,681160,43521,25413,3,5,85,B3,weapon,5,7&,4723.5737655,4773.5856214,50.0118558999993,0,0
2694,2@,1,51,11,21,42,61,32,Abstract_Concrete_6tasks_simseq_2seq_listtask_switchAB_fMRI,681160,43521,25413,3,6,86,A2,glasses,3,2@,4723.5737655,4783.5896654,60.0158998999996,0,0
1902,9(,1,52,11,21,41,61,31,Abstract_Concrete_6tasks_simseq_2seq_listtask_switchAB_fMRI,681160,43521,25413,3,7,87,B1,vest,2,9(,4723.5737655,4793.5953544,70.0215889000001,0,0
3152,7&,1,52,11,21,42,62,31,Abstract_Concrete_6tasks_simseq_2seq_listtask_switchAB_fMRI,681160,43521,25413,3,8,88,A1,weapon,5,7&,4723.5737655,4802.591327,79.0175614999998,0,0
2011,3#,1,51,11,22,41,62,32,Abstract_Concrete_6tasks_simseq_2seq_listtask_switchAB_fMRI,681160,43521,25413,3,9,89,B2,tools,6,3#,4723.5737655,4813.6074111,90.0336455999995,0,0
2360,3#,1,51,12,21,41,62,31,Abstract_Concrete_6tasks_simseq_2seq_listtask_switchAB_fMRI,681160,43521,25413,3,10,90,A3,tools,6,3#,4723.5737655,4823.6117768,100.0380113,0,0
1835,7&,1,51,11,21,42,61,31,Abstract_Concrete_6tasks_simseq_2seq_listtask_switchAB_fMRI,681160,43521,25413,3,11,91,B3,weapon,5,7&,4723.5737655,4833.60533,110.0315645,0,0
3066,7&,1,51,12,21,42,62,32,Abstract_Concrete_6tasks_simseq_2seq_listtask_switchAB_fMRI,681160,43521,25413,3,12,92,A1,weapon,5,7&,4723.5737655,4842.5923558,119.0185903,0,0
2290,2@,1,51,11,22,42,62,32,Abstract_Concrete_6tasks_simseq_2seq_listtask_switchAB_fMRI,681160,43521,25413,3,13,93,B5,glasses,3,2@,4723.5737655,4853.5923402,130.0185747,0,0
2514,3#,1,52,12,22,42,62,32,Abstract_Concrete_6tasks_simseq_2seq_listtask_switchAB_fMRI,681160,43521,25413,3,14,94,A3,tools,6,3#,4723.5737655,4863.5942376,140.0204721,0,0
1683,2@,1,52,11,21,41,61,32,Abstract_Concrete_6tasks_simseq_2seq_listtask_switchAB_fMRI,681160,43521,25413,3,15,95,B5,glasses,3,2@,4723.5737655,4873.5920499,150.0182844,0,0
1657,2@,1,51,12,21,41,62,31,Abstract_Concrete_6tasks_simseq_2seq_listtask_switchAB_fMRI,681160,43521,25413,3,16,96,A2,glasses,3,2@,4723.5737655,4882.5885851,159.0148196,0,0
2305,9(,1,51,12,22,42,62,31,Abstract_Concrete_6tasks_simseq_2seq_listtask_switchAB_fMRI,681160,43521,25413,3,17,97,B1,vest,2,9(,4723.5737655,4891.5909801,168.0172146,0,0
4118,7&,1,52,11,22,42,61,32,Abstract_Concrete_6tasks_simseq_2seq_listtask_switchAB_fMRI,681160,43521,25413,3,18,98,A1,weapon,5,7&,4723.5737655,4901.5934401,178.0196746,0,0
1422,2@,1,51,11,21,42,62,32,Abstract_Concrete_6tasks_simseq_2seq_listtask_switchAB_fMRI,681160,43521,25413,3,19,99,B5,glasses,3,2@,4723.5737655,4913.5884414,190.0146759,0,0
2236,2@,1,52,12,22,41,62,31,Abstract_Concrete_6tasks_simseq_2seq_listtask_switchAB_fMRI,681160,43521,25413,3,20,100,A2,glasses,3,2@,4723.5737655,4922.5940223,199.0202568,0,0
2077,9(,1,52,11,22,42,62,31,Abstract_Concrete_6tasks_simseq_2seq_listtask_switchAB_fMRI,681160,43521,25413,3,21,101,B1,vest,2,9(,4723.5737655,4932.5951528,209.021387299999,0,0
2243,2@,1,52,11,22,42,61,31,Abstract_Concrete_6tasks_simseq_2seq_listtask_switchAB_fMRI,681160,43521,25413,3,22,102,A2,glasses,3,2@,4723.5737655,4942.595164,219.0213985,0,0
1810,7&,1,52,12,22,42,62,32,Abstract_Concrete_6tasks_simseq_2seq_listtask_switchAB_fMRI,681160,43521,25413,3,23,103,B3,weapon,5,7&,4723.5737655,4952.5943172,229.020551699999,0,0
2772,9(,1,52,11,22,41,62,32,Abstract_Concrete_6tasks_simseq_2seq_listtask_switchAB_fMRI,681160,43521,25413,3,24,104,A4,vest,2,9(,4723.5737655,4961.5977302,238.0239647,0,0
2031,8*,1,51,12,22,41,62,31,Abstract_Concrete_6tasks_simseq_2seq_listtask_switchAB_fMRI,681160,43521,25413,3,25,105,B4,helmet,1,8*,4723.5737655,4971.5918605,248.018094999999,0,0
3123,9(,1,51,12,21,41,62,32,Abstract_Concrete_6tasks_simseq_2seq_listtask_switchAB_fMRI,681160,43521,25413,3,26,106,A4,vest,2,9(,4723.5737655,4981.5953062,258.0215407,0,0
2009,7&,1,52,12,22,41,62,32,Abstract_Concrete_6tasks_simseq_2seq_listtask_switchAB_fMRI,681160,43521,25413,3,27,107,B3,weapon,5,7&,4723.5737655,4992.5860222,269.0122567,0,0
2645,8*,1,51,12,22,42,62,32,Abstract_Concrete_6tasks_simseq_2seq_listtask_switchAB_fMRI,681160,43521,25413,3,28,108,A5,helmet,1,8*,4723.5737655,5002.5979929,279.024227399999,0,0
2025,3#,1,51,12,21,42,62,32,Abstract_Concrete_6tasks_simseq_2seq_listtask_switchAB_fMRI,681160,43521,25413,3,29,109,B2,tools,6,3#,4723.5737655,5012.5850036,289.0112381,0,0
2232,7&,1,52,11,21,41,61,32,Abstract_Concrete_6tasks_simseq_2seq_listtask_switchAB_fMRI,681160,43521,25413,3,30,110,A1,weapon,5,7&,4723.5737655,5022.5858004,299.0120349,0,0
1341,9(,1,52,11,22,41,61,32,Abstract_Concrete_6tasks_simseq_2seq_listtask_switchAB_fMRI,681160,43521,25413,3,31,111,B1,vest,2,9(,4723.5737655,5032.5993431,309.025577599999,0,0
3549,8*,1,51,11,22,42,62,32,Abstract_Concrete_6tasks_simseq_2seq_listtask_switchAB_fMRI,681160,43521,25413,3,32,112,A5,helmet,1,8*,4723.5737655,5041.5848119,318.0110464,0,0
2121,3#,1,52,12,21,41,62,31,Abstract_Concrete_6tasks_simseq_2seq_listtask_switchAB_fMRI,681160,43521,25413,3,33,113,B2,tools,6,3#,4723.5737655,5052.5877084,329.0139429,0,0
3139,9(,1,52,12,22,41,61,32,Abstract_Concrete_6tasks_simseq_2seq_listtask_switchAB_fMRI,681160,43521,25413,3,34,114,A4,vest,2,9(,4723.5737655,5062.5911927,339.017427199999,0,0
2505,3#,1,51,11,21,42,62,31,Abstract_Concrete_6tasks_simseq_2seq_listtask_switchAB_fMRI,681160,43521,25413,3,35,115,B2,tools,6,3#,4723.5737655,5073.5865334,350.0127679,0,0
2320,9(,1,51,11,22,42,61,31,Abstract_Concrete_6tasks_simseq_2seq_listtask_switchAB_fMRI,681160,43521,25413,3,36,116,A4,vest,2,9(,4723.5737655,5083.5882645,360.014499,0,0
3468,2@,1,51,11,21,41,62,32,Abstract_Concrete_6tasks_simseq_2seq_listtask_switchAB_fMRI,681160,43521,25413,3,37,117,B5,glasses,3,2@,4723.5737655,5093.5850286,370.0112631,0,0
3288,3#,1,52,12,21,41,61,32,Abstract_Concrete_6tasks_simseq_2seq_listtask_switchAB_fMRI,681160,43521,25413,3,38,118,A3,tools,6,3#,4723.5737655,5104.5993028,381.0255373,0,0
2333,8*,1,52,11,21,42,61,31,Abstract_Concrete_6tasks_simseq_2seq_listtask_switchAB_fMRI,681160,43521,25413,3,39,119,B4,helmet,1,8*,4723.5737655,5115.5866498,392.012884299999,0,0
1466,2@,0,51,12,21,41,61,31,Abstract_Concrete_6tasks_simseq_2seq_listtask_switchAB_fMRI,681160,43521,25413,3,40,120,A5,helmet,1,8*,4723.5737655,5125.584981,402.0112155,5127.0667507,403.4929852
3375,9(,1,51,12,21,42,62,31,Abstract_Concrete_6tasks_simseq_2seq_listtask_switchAB_fMRI,681160,43521,25413,4,1,121,B1,vest,2,9(,5308.9048491,5316.9151689,8.01031979999971,0,0
2380,7&,1,51,12,22,42,61,31,Abstract_Concrete_6tasks_simseq_2seq_listtask_switchAB_fMRI,681160,43521,25413,4,2,122,A1,weapon,5,7&,5308.9048491,5327.9196911,19.0148419999996,0,0
2231,2@,1,51,12,21,42,62,31,Abstract_Concrete_6tasks_simseq_2seq_listtask_switchAB_fMRI,681160,43521,25413,4,3,123,B5,glasses,3,2@,5308.9048491,5337.9209787,29.0161295999997,0,0
2547,3#,1,51,11,22,41,62,31,Abstract_Concrete_6tasks_simseq_2seq_listtask_switchAB_fMRI,681160,43521,25413,4,4,124,A3,tools,6,3#,5308.9048491,5347.927505,39.0226558999993,0,0
2544,8*,1,52,11,22,42,62,31,Abstract_Concrete_6tasks_simseq_2seq_listtask_switchAB_fMRI,681160,43521,25413,4,5,125,B4,helmet,1,8*,5308.9048491,5357.9201159,49.0152668000001,0,0
2811,9(,1,52,11,21,41,61,31,Abstract_Concrete_6tasks_simseq_2seq_listtask_switchAB_fMRI,681160,43521,25413,4,6,126,A4,vest,2,9(,5308.9048491,5367.9233711,59.0185219999994,0,0
2838,3#,1,51,11,21,41,61,32,Abstract_Concrete_6tasks_simseq_2seq_listtask_switchAB_fMRI,681160,43521,25413,4,7,127,B2,tools,6,3#,5308.9048491,5377.916372,69.0115228999994,0,0
3070,9(,1,52,12,22,41,61,31,Abstract_Concrete_6tasks_simseq_2seq_listtask_switchAB_fMRI,681160,43521,25413,4,8,128,A4,vest,2,9(,5308.9048491,5387.9208231,79.0159739999999,0,0
2918,7&,1,52,11,22,41,62,32,Abstract_Concrete_6tasks_simseq_2seq_listtask_switchAB_fMRI,681160,43521,25413,4,9,129,B3,weapon,5,7&,5308.9048491,5398.9215931,90.0167439999996,0,0
2025,8*,1,52,11,21,42,61,32,Abstract_Concrete_6tasks_simseq_2seq_listtask_switchAB_fMRI,681160,43521,25413,4,10,130,A5,helmet,1,8*,5308.9048491,5408.9213322,100.016483099999,0,0
2698,8*,1,52,12,21,41,61,32,Abstract_Concrete_6tasks_simseq_2seq_listtask_switchAB_fMRI,681160,43521,25413,4,11,131,B4,helmet,1,8*,5308.9048491,5418.9226523,110.017803199999,0,0
3695,2@,1,52,12,21,42,62,32,Abstract_Concrete_6tasks_simseq_2seq_listtask_switchAB_fMRI,681160,43521,25413,4,12,132,A2,glasses,3,2@,5308.9048491,5428.9412774,120.0364283,0,0
2986,9(,1,51,12,21,41,62,32,Abstract_Concrete_6tasks_simseq_2seq_listtask_switchAB_fMRI,681160,43521,25413,4,13,133,B1,vest,2,9(,5308.9048491,5439.9252431,131.020394,0,0
3163,2@,1,52,12,22,42,62,31,Abstract_Concrete_6tasks_simseq_2seq_listtask_switchAB_fMRI,681160,43521,25413,4,14,134,A2,glasses,3,2@,5308.9048491,5450.9273752,142.0225261,0,0
2013,3#,1,51,11,22,41,62,32,Abstract_Concrete_6tasks_simseq_2seq_listtask_switchAB_fMRI,681160,43521,25413,4,15,135,B2,tools,6,3#,5308.9048491,5461.9259611,153.021111999999,0,0
2201,2@,1,52,12,22,41,61,31,Abstract_Concrete_6tasks_simseq_2seq_listtask_switchAB_fMRI,681160,43521,25413,4,16,136,A2,glasses,3,2@,5308.9048491,5471.9211377,163.0162886,0,0
2803,7&,1,51,12,21,41,62,31,Abstract_Concrete_6tasks_simseq_2seq_listtask_switchAB_fMRI,681160,43521,25413,4,17,137,B3,weapon,5,7&,5308.9048491,5481.9259482,173.021099099999,0,0
3145,7&,1,51,12,21,41,61,31,Abstract_Concrete_6tasks_simseq_2seq_listtask_switchAB_fMRI,681160,43521,25413,4,18,138,A1,weapon,5,7&,5308.9048491,5491.9260839,183.0212348,0,0
2683,3#,1,51,11,21,42,62,31,Abstract_Concrete_6tasks_simseq_2seq_listtask_switchAB_fMRI,681160,43521,25413,4,19,139,B2,tools,6,3#,5308.9048491,5502.9280344,194.0231853,0,0
4401,7&,1,51,11,22,41,61,31,Abstract_Concrete_6tasks_simseq_2seq_listtask_switchAB_fMRI,681160,43521,25413,4,20,140,A1,weapon,5,7&,5308.9048491,5512.9291821,204.024332999999,0,0
3088,2@,1,52,12,22,42,61,31,Abstract_Concrete_6tasks_simseq_2seq_listtask_switchAB_fMRI,681160,43521,25413,4,21,141,B5,glasses,3,2@,5308.9048491,5524.9256296,216.0207805,0,0
2683,3#,1,52,11,21,42,62,32,Abstract_Concrete_6tasks_simseq_2seq_listtask_switchAB_fMRI,681160,43521,25413,4,22,142,A3,tools,6,3#,5308.9048491,5535.925992,227.0211429,0,0
2479,7&,1,52,12,22,42,62,31,Abstract_Concrete_6tasks_simseq_2seq_listtask_switchAB_fMRI,681160,43521,25413,4,23,143,B3,weapon,5,7&,5308.9048491,5545.9288255,237.0239764,0,0
2587,8*,1,52,12,22,41,62,32,Abstract_Concrete_6tasks_simseq_2seq_listtask_switchAB_fMRI,681160,43521,25413,4,24,144,A5,helmet,1,8*,5308.9048491,5555.9262703,247.0214212,0,0
2557,9(,1,52,11,21,42,61,31,Abstract_Concrete_6tasks_simseq_2seq_listtask_switchAB_fMRI,681160,43521,25413,4,25,145,B1,vest,2,9(,5308.9048491,5565.9312379,257.0263888,0,0
1767,2@,1,51,12,22,41,62,31,Abstract_Concrete_6tasks_simseq_2seq_listtask_switchAB_fMRI,681160,43521,25413,4,26,146,A2,glasses,3,2@,5308.9048491,5575.9240242,267.019175099999,0,0
1594,9(,1,51,11,21,41,61,32,Abstract_Concrete_6tasks_simseq_2seq_listtask_switchAB_fMRI,681160,43521,25413,4,27,147,B1,vest,2,9(,5308.9048491,5584.9213605,276.0165114,0,0
2363,3#,1,51,11,21,42,61,31,Abstract_Concrete_6tasks_simseq_2seq_listtask_switchAB_fMRI,681160,43521,25413,4,28,148,A3,tools,6,3#,5308.9048491,5593.9176648,285.0128157,0,0
2237,8*,1,52,11,21,41,61,31,Abstract_Concrete_6tasks_simseq_2seq_listtask_switchAB_fMRI,681160,43521,25413,4,29,149,B4,helmet,1,8*,5308.9048491,5603.920428,295.0155789,0,0
1786,8*,1,52,12,22,42,61,32,Abstract_Concrete_6tasks_simseq_2seq_listtask_switchAB_fMRI,681160,43521,25413,4,30,150,A5,helmet,1,8*,5308.9048491,5613.9155441,305.010695,0,0
2540,2@,1,52,11,21,42,61,32,Abstract_Concrete_6tasks_simseq_2seq_listtask_switchAB_fMRI,681160,43521,25413,4,31,151,B5,glasses,3,2@,5308.9048491,5622.9178912,314.013042099999,0,0
757,8*,1,52,12,21,41,62,31,Abstract_Concrete_6tasks_simseq_2seq_listtask_switchAB_fMRI,681160,43521,25413,4,32,152,A5,helmet,1,8*,5308.9048491,5632.9164704,324.0116213,0,0
915,2@,1,52,12,22,42,61,31,Abstract_Concrete_6tasks_simseq_2seq_listtask_switchAB_fMRI,681160,43521,25413,4,33,153,B5,glasses,3,2@,5308.9048491,5640.9177689,332.0129198,0,0
3793,9(,1,51,11,21,42,62,31,Abstract_Concrete_6tasks_simseq_2seq_listtask_switchAB_fMRI,681160,43521,25413,4,34,154,A4,vest,2,9(,5308.9048491,5648.9164153,340.0115662,0,0
2367,8*,1,52,12,21,41,62,32,Abstract_Concrete_6tasks_simseq_2seq_listtask_switchAB_fMRI,681160,43521,25413,4,35,155,B4,helmet,1,8*,5308.9048491,5659.9180189,351.0131698,0,0
2339,7&,1,52,11,21,42,62,31,Abstract_Concrete_6tasks_simseq_2seq_listtask_switchAB_fMRI,681160,43521,25413,4,36,156,A1,weapon,5,7&,5308.9048491,5669.9249158,361.0200667,0,0
2309,3#,1,51,11,21,41,61,31,Abstract_Concrete_6tasks_simseq_2seq_listtask_switchAB_fMRI,681160,43521,25413,4,37,157,B2,tools,6,3#,5308.9048491,5679.9175059,371.0126568,0,0
2156,3#,1,52,12,22,41,62,31,Abstract_Concrete_6tasks_simseq_2seq_listtask_switchAB_fMRI,681160,43521,25413,4,38,158,A3,tools,6,3#,5308.9048491,5689.9232031,381.018354,0,0
2327,7&,1,51,11,22,41,62,31,Abstract_Concrete_6tasks_simseq_2seq_listtask_switchAB_fMRI,681160,43521,25413,4,39,159,B3,weapon,5,7&,5308.9048491,5699.9170489,391.0121998,0,0
2458,9(,1,51,11,21,41,62,31,Abstract_Concrete_6tasks_simseq_2seq_listtask_switchAB_fMRI,681160,43521,25413,4,40,160,A4,vest,2,9(,5308.9048491,5709.9170841,401.012234999999,0,0
2237,3#,1,51,12,21,41,62,31,Abstract_Concrete_6tasks_simseq_2seq_listtask_switchAB_fMRI,681160,43521,25413,5,1,161,B2,tools,6,3#,5759.9858306,5767.9995884785,8.01375787849884,0,0
2179,9(,1,52,11,22,41,62,31,Abstract_Concrete_6tasks_simseq_2seq_listtask_switchAB_fMRI,681160,43521,25413,5,2,162,A4,vest,2,9(,5759.9858306,5777.99299310564,18.0071625056371,0,0
5511,2@,1,52,11,21,41,62,32,Abstract_Concrete_6tasks_simseq_2seq_listtask_switchAB_fMRI,681160,43521,25413,5,3,163,B5,glasses,3,2@,5759.9858306,5788.0166815,28.0308509000006,0,0
2425,7&,1,52,12,22,41,61,32,Abstract_Concrete_6tasks_simseq_2seq_listtask_switchAB_fMRI,681160,43521,25413,5,4,164,A1,weapon,5,7&,5759.9858306,5800.9979618,41.0121312000001,0,0
1962,7&,1,52,11,22,42,62,32,Abstract_Concrete_6tasks_simseq_2seq_listtask_switchAB_fMRI,681160,43521,25413,5,5,165,B3,weapon,5,7&,5759.9858306,5810.9998601,51.0140295000001,0,0
1731,3#,1,52,12,21,42,62,31,Abstract_Concrete_6tasks_simseq_2seq_listtask_switchAB_fMRI,681160,43521,25413,5,6,166,A3,tools,6,3#,5759.9858306,5820.0214279,60.0355973000005,0,0
3275,9(,1,51,11,22,41,62,31,Abstract_Concrete_6tasks_simseq_2seq_listtask_switchAB_fMRI,681160,43521,25413,5,7,167,B1,vest,2,9(,5759.9858306,5829.0017632,69.0159326000003,0,0
1615,8*,1,52,11,22,41,61,32,Abstract_Concrete_6tasks_simseq_2seq_listtask_switchAB_fMRI,681160,43521,25413,5,8,168,A5,helmet,1,8*,5759.9858306,5840.00564,80.0198094000007,0,0
2124,7&,1,52,12,21,41,62,32,Abstract_Concrete_6tasks_simseq_2seq_listtask_switchAB_fMRI,681160,43521,25413,5,9,169,B3,weapon,5,7&,5759.9858306,5849.0012472,89.0154166000002,0,0
3088,3#,1,51,12,22,42,61,32,Abstract_Concrete_6tasks_simseq_2seq_listtask_switchAB_fMRI,681160,43521,25413,5,10,170,A3,tools,6,3#,5759.9858306,5859.0039182,99.0180876000004,0,0
1666,3#,1,52,11,21,41,62,31,Abstract_Concrete_6tasks_simseq_2seq_listtask_switchAB_fMRI,681160,43521,25413,5,11,171,B2,tools,6,3#,5759.9858306,5870.0035659,110.0177353,0,0
2345,2@,1,51,12,21,42,61,31,Abstract_Concrete_6tasks_simseq_2seq_listtask_switchAB_fMRI,681160,43521,25413,5,12,172,A2,glasses,3,2@,5759.9858306,5879.0127489,119.0269183,0,0
2323,8*,1,51,11,22,41,61,31,Abstract_Concrete_6tasks_simseq_2seq_listtask_switchAB_fMRI,681160,43521,25413,5,13,173,B4,helmet,1,8*,5759.9858306,5889.0040232,129.0181926,0,0
2648,2@,1,51,11,21,41,61,32,Abstract_Concrete_6tasks_simseq_2seq_listtask_switchAB_fMRI,681160,43521,25413,5,14,174,A2,glasses,3,2@,5759.9858306,5899.0018842,139.0160536,0,0
2479,8*,1,51,12,22,41,62,31,Abstract_Concrete_6tasks_simseq_2seq_listtask_switchAB_fMRI,681160,43521,25413,5,15,175,B4,helmet,1,8*,5759.9858306,5909.0007567,149.014926100001,0,0
1505,8*,1,51,12,21,41,62,31,Abstract_Concrete_6tasks_simseq_2seq_listtask_switchAB_fMRI,681160,43521,25413,5,16,176,A5,helmet,1,8*,5759.9858306,5919.0041049,159.0182743,0,0
2708,7&,1,51,11,21,42,62,32,Abstract_Concrete_6tasks_simseq_2seq_listtask_switchAB_fMRI,681160,43521,25413,5,17,177,B3,weapon,5,7&,5759.9858306,5927.9977209,168.0118903,0,0
3006,3#,1,52,12,22,42,61,32,Abstract_Concrete_6tasks_simseq_2seq_listtask_switchAB_fMRI,681160,43521,25413,5,18,178,A3,tools,6,3#,5759.9858306,5938.003731,178.0179004,0,0
1459,7&,1,52,12,21,41,62,32,Abstract_Concrete_6tasks_simseq_2seq_listtask_switchAB_fMRI,681160,43521,25413,5,19,179,B3,weapon,5,7&,5759.9858306,5949.007078,189.0212474,0,0
2129,7&,1,51,12,22,42,62,31,Abstract_Concrete_6tasks_simseq_2seq_listtask_switchAB_fMRI,681160,43521,25413,5,20,180,A1,weapon,5,7&,5759.9858306,5958.0062225,198.020391900001,0,0
1826,9(,1,51,12,21,41,61,31,Abstract_Concrete_6tasks_simseq_2seq_listtask_switchAB_fMRI,681160,43521,25413,5,21,181,B1,vest,2,9(,5759.9858306,5968.007452,208.0216214,0,0
1787,7&,1,52,12,21,42,62,32,Abstract_Concrete_6tasks_simseq_2seq_listtask_switchAB_fMRI,681160,43521,25413,5,22,182,A1,weapon,5,7&,5759.9858306,5977.0227028,217.0368722,0,0
2393,3#,1,52,12,21,42,62,31,Abstract_Concrete_6tasks_simseq_2seq_listtask_switchAB_fMRI,681160,43521,25413,5,23,183,B2,tools,6,3#,5759.9858306,5986.0064773,226.020646700001,0,0
3114,9(,1,52,11,21,42,62,32,Abstract_Concrete_6tasks_simseq_2seq_listtask_switchAB_fMRI,681160,43521,25413,5,24,184,A4,vest,2,9(,5759.9858306,5996.0078523,236.022021700001,0,0
4555,2@,1,52,11,21,42,61,31,Abstract_Concrete_6tasks_simseq_2seq_listtask_switchAB_fMRI,681160,43521,25413,5,25,185,B5,glasses,3,2@,5759.9858306,6007.0248474,247.0390168,0,0
2274,8*,1,51,11,21,41,61,32,Abstract_Concrete_6tasks_simseq_2seq_listtask_switchAB_fMRI,681160,43521,25413,5,26,186,A5,helmet,1,8*,5759.9858306,6019.0083083,259.0224777,0,0
1590,8*,1,51,12,21,42,61,31,Abstract_Concrete_6tasks_simseq_2seq_listtask_switchAB_fMRI,681160,43521,25413,5,27,187,B4,helmet,1,8*,5759.9858306,6028.9970718,269.011241200001,0,0
2252,9(,1,52,12,21,42,62,32,Abstract_Concrete_6tasks_simseq_2seq_listtask_switchAB_fMRI,681160,43521,25413,5,28,188,A4,vest,2,9(,5759.9858306,6038.0102049,278.0243743,0,0
2206,8*,1,52,12,22,42,61,31,Abstract_Concrete_6tasks_simseq_2seq_listtask_switchAB_fMRI,681160,43521,25413,5,29,189,B4,helmet,1,8*,5759.9858306,6048.0085169,288.022686300001,0,0
2843,3#,1,51,12,21,42,61,32,Abstract_Concrete_6tasks_simseq_2seq_listtask_switchAB_fMRI,681160,43521,25413,5,30,190,A3,tools,6,3#,5759.9858306,6058.0104874,298.0246568,0,0
2997,2@,1,51,11,22,41,62,32,Abstract_Concrete_6tasks_simseq_2seq_listtask_switchAB_fMRI,681160,43521,25413,5,31,191,B5,glasses,3,2@,5759.9858306,6068.0101231,308.0242925,0,0
2436,9(,1,51,11,21,42,62,32,Abstract_Concrete_6tasks_simseq_2seq_listtask_switchAB_fMRI,681160,43521,25413,5,32,192,A4,vest,2,9(,5759.9858306,6079.0085034,319.022672800001,0,0
1377,9(,1,52,12,21,41,62,31,Abstract_Concrete_6tasks_simseq_2seq_listtask_switchAB_fMRI,681160,43521,25413,5,33,193,B1,vest,2,9(,5759.9858306,6089.0038676,329.018037000001,0,0
3066,7&,1,51,11,21,42,61,31,Abstract_Concrete_6tasks_simseq_2seq_listtask_switchAB_fMRI,681160,43521,25413,5,34,194,A1,weapon,5,7&,5759.9858306,6097.9996354,338.013804800001,0,0
2374,3#,1,52,12,22,42,61,32,Abstract_Concrete_6tasks_simseq_2seq_listtask_switchAB_fMRI,681160,43521,25413,5,35,195,B2,tools,6,3#,5759.9858306,6108.9981704,349.012339800001,0,0
2184,8*,1,52,11,22,42,62,31,Abstract_Concrete_6tasks_simseq_2seq_listtask_switchAB_fMRI,681160,43521,25413,5,36,196,A5,helmet,1,8*,5759.9858306,6119.0107531,359.024922500001,0,0
1430,9(,1,51,11,21,41,61,31,Abstract_Concrete_6tasks_simseq_2seq_listtask_switchAB_fMRI,681160,43521,25413,5,37,197,B1,vest,2,9(,5759.9858306,6128.997206,369.0113754,0,0
2458,2@,1,51,11,21,42,61,32,Abstract_Concrete_6tasks_simseq_2seq_listtask_switchAB_fMRI,681160,43521,25413,5,38,198,A2,glasses,3,2@,5759.9858306,6137.9978664,378.0120358,0,0
3037,2@,1,52,11,22,42,62,31,Abstract_Concrete_6tasks_simseq_2seq_listtask_switchAB_fMRI,681160,43521,25413,5,39,199,B5,glasses,3,2@,5759.9858306,6148.0044287,388.0185981,0,0
2049,2@,1,52,11,21,41,62,32,Abstract_Concrete_6tasks_simseq_2seq_listtask_switchAB_fMRI,681160,43521,25413,5,40,200,A2,glasses,3,2@,5759.9858306,6158.9992394,399.0134088,0,0
2574,7&,1,52,11,22,41,62,32,Abstract_Concrete_6tasks_simseq_2seq_listtask_switchAB_fMRI,681160,43521,25413,6,1,201,A1,weapon,5,7&,6220.256631,6228.2684554,8.01182439999957,0,0
3752,3#,1,52,11,22,42,62,32,Abstract_Concrete_6tasks_simseq_2seq_listtask_switchAB_fMRI,681160,43521,25413,6,2,202,B2,tools,6,3#,6220.256631,6238.2715479,18.0149168999997,0,0
5390,9(,1,52,11,22,42,61,31,Abstract_Concrete_6tasks_simseq_2seq_listtask_switchAB_fMRI,681160,43521,25413,6,3,203,A4,vest,2,9(,6220.256631,6249.2705141,29.0138830999995,0,0
1673,9(,1,52,11,22,41,62,31,Abstract_Concrete_6tasks_simseq_2seq_listtask_switchAB_fMRI,681160,43521,25413,6,4,204,B1,vest,2,9(,6220.256631,6262.2721641,42.0155330999996,0,0
2127,2@,1,52,12,21,41,62,32,Abstract_Concrete_6tasks_simseq_2seq_listtask_switchAB_fMRI,681160,43521,25413,6,5,205,A2,glasses,3,2@,6220.256631,6271.2723337,51.0157026999996,0,0
1543,2@,1,52,12,22,42,61,31,Abstract_Concrete_6tasks_simseq_2seq_listtask_switchAB_fMRI,681160,43521,25413,6,6,206,B5,glasses,3,2@,6220.256631,6281.2824787,61.0258476999998,0,0
3145,9(,1,52,12,22,42,61,31,Abstract_Concrete_6tasks_simseq_2seq_listtask_switchAB_fMRI,681160,43521,25413,6,7,207,A4,vest,2,9(,6220.256631,6290.2807411,70.0241101000001,0,0
1516,7&,1,51,12,22,41,62,31,Abstract_Concrete_6tasks_simseq_2seq_listtask_switchAB_fMRI,681160,43521,25413,6,8,208,B3,weapon,5,7&,6220.256631,6301.2731259,81.0164949,0,0
2577,7&,1,51,11,21,41,62,31,Abstract_Concrete_6tasks_simseq_2seq_listtask_switchAB_fMRI,681160,43521,25413,6,9,209,A1,weapon,5,7&,6220.256631,6310.2711555,90.0145244999994,0,0
1186,9(,1,51,11,22,41,62,31,Abstract_Concrete_6tasks_simseq_2seq_listtask_switchAB_fMRI,681160,43521,25413,6,10,210,B1,vest,2,9(,6220.256631,6320.2745903,100.0179593,0,0
2319,9(,1,52,12,21,42,62,32,Abstract_Concrete_6tasks_simseq_2seq_listtask_switchAB_fMRI,681160,43521,25413,6,11,211,A4,vest,2,9(,6220.256631,6329.2766557,109.0200247,0,0
1260,9(,1,51,11,21,42,61,31,Abstract_Concrete_6tasks_simseq_2seq_listtask_switchAB_fMRI,681160,43521,25413,6,12,212,B1,vest,2,9(,6220.256631,6339.2755002,119.0188692,0,0
2693,7&,1,52,12,21,42,62,32,Abstract_Concrete_6tasks_simseq_2seq_listtask_switchAB_fMRI,681160,43521,25413,6,13,213,A1,weapon,5,7&,6220.256631,6348.2744406,128.0178096,0,0
3240,2@,1,52,11,22,41,62,32,Abstract_Concrete_6tasks_simseq_2seq_listtask_switchAB_fMRI,681160,43521,25413,6,14,214,B5,glasses,3,2@,6220.256631,6358.2748851,138.018254099999,0,0
2487,2@,1,52,11,21,41,62,32,Abstract_Concrete_6tasks_simseq_2seq_listtask_switchAB_fMRI,681160,43521,25413,6,15,215,A2,glasses,3,2@,6220.256631,6369.2777442,149.021113199999,0,0
1899,8*,1,52,11,22,42,61,31,Abstract_Concrete_6tasks_simseq_2seq_listtask_switchAB_fMRI,681160,43521,25413,6,16,216,B4,helmet,1,8*,6220.256631,6379.2685869,159.0119559,0,0
2379,3#,1,51,12,21,41,61,31,Abstract_Concrete_6tasks_simseq_2seq_listtask_switchAB_fMRI,681160,43521,25413,6,17,217,A3,tools,6,3#,6220.256631,6388.2746149,168.0179839,0,0
3153,8*,1,51,12,21,42,62,32,Abstract_Concrete_6tasks_simseq_2seq_listtask_switchAB_fMRI,681160,43521,25413,6,18,218,B4,helmet,1,8*,6220.256631,6398.2764931,178.0198621,0,0
2461,3#,1,52,11,22,41,61,31,Abstract_Concrete_6tasks_simseq_2seq_listtask_switchAB_fMRI,681160,43521,25413,6,19,219,A3,tools,6,3#,6220.256631,6409.2762945,189.0196635,0,0
1450,3#,1,52,12,22,42,61,31,Abstract_Concrete_6tasks_simseq_2seq_listtask_switchAB_fMRI,681160,43521,25413,6,20,220,B2,tools,6,3#,6220.256631,6419.2799098,199.023278799999,0,0
1416,8*,1,51,12,22,41,62,31,Abstract_Concrete_6tasks_simseq_2seq_listtask_switchAB_fMRI,681160,43521,25413,6,21,221,A5,helmet,1,8*,6220.256631,6428.2699249,208.0132939,0,0
1444,3#,1,52,11,22,42,62,32,Abstract_Concrete_6tasks_simseq_2seq_listtask_switchAB_fMRI,681160,43521,25413,6,22,222,B2,tools,6,3#,6220.256631,6437.2968588,217.0402278,0,0
2212,9(,1,52,12,22,41,61,31,Abstract_Concrete_6tasks_simseq_2seq_listtask_switchAB_fMRI,681160,43521,25413,6,23,223,A4,vest,2,9(,6220.256631,6446.2926406,226.036009599999,0,0
1955,8*,1,51,11,21,42,62,31,Abstract_Concrete_6tasks_simseq_2seq_listtask_switchAB_fMRI,681160,43521,25413,6,24,224,B4,helmet,1,8*,6220.256631,6456.2793237,236.022692699999,0,0
2194,3#,1,51,12,21,41,61,31,Abstract_Concrete_6tasks_simseq_2seq_listtask_switchAB_fMRI,681160,43521,25413,6,25,225,A3,tools,6,3#,6220.256631,6465.2758701,245.0192391,0,0
1672,7&,1,51,11,22,41,62,32,Abstract_Concrete_6tasks_simseq_2seq_listtask_switchAB_fMRI,681160,43521,25413,6,26,226,B3,weapon,5,7&,6220.256631,6475.2733342,255.0167032,0,0
1731,3#,1,51,12,22,42,61,32,Abstract_Concrete_6tasks_simseq_2seq_listtask_switchAB_fMRI,681160,43521,25413,6,27,227,A3,tools,6,3#,6220.256631,6484.2686629,264.0120319,0,0
1557,7&,1,52,11,22,41,61,31,Abstract_Concrete_6tasks_simseq_2seq_listtask_switchAB_fMRI,681160,43521,25413,6,28,228,B3,weapon,5,7&,6220.256631,6493.2794311,273.0228001,0,0
1675,7&,1,52,12,22,42,61,32,Abstract_Concrete_6tasks_simseq_2seq_listtask_switchAB_fMRI,681160,43521,25413,6,29,229,A1,weapon,5,7&,6220.256631,6502.2818326,282.025201599999,0,0
2229,9(,1,51,12,22,42,61,32,Abstract_Concrete_6tasks_simseq_2seq_listtask_switchAB_fMRI,681160,43521,25413,6,30,230,B1,vest,2,9(,6220.256631,6511.2810508,291.0244198,0,0
2417,2@,1,52,12,22,41,61,32,Abstract_Concrete_6tasks_simseq_2seq_listtask_switchAB_fMRI,681160,43521,25413,6,31,231,A2,glasses,3,2@,6220.256631,6521.2692143,301.0125833,0,0
2432,3#,1,52,11,21,41,62,32,Abstract_Concrete_6tasks_simseq_2seq_listtask_switchAB_fMRI,681160,43521,25413,6,32,232,B2,tools,6,3#,6220.256631,6531.2681336,311.011502599999,0,0
1273,8*,1,52,11,21,41,62,32,Abstract_Concrete_6tasks_simseq_2seq_listtask_switchAB_fMRI,681160,43521,25413,6,33,233,A5,helmet,1,8*,6220.256631,6541.2781341,321.0215031,0,0
1476,7&,1,51,11,22,42,62,31,Abstract_Concrete_6tasks_simseq_2seq_listtask_switchAB_fMRI,681160,43521,25413,6,34,234,B3,weapon,5,7&,6220.256631,6550.2804529,330.023821899999,0,0
1637,8*,1,52,12,21,42,62,31,Abstract_Concrete_6tasks_simseq_2seq_listtask_switchAB_fMRI,681160,43521,25413,6,35,235,A5,helmet,1,8*,6220.256631,6559.2766181,339.0199871,0,0
2224,2@,1,51,12,21,41,62,31,Abstract_Concrete_6tasks_simseq_2seq_listtask_switchAB_fMRI,681160,43521,25413,6,36,236,B5,glasses,3,2@,6220.256631,6568.2749198,348.0182888,0,0
1947,2@,1,51,11,22,42,61,31,Abstract_Concrete_6tasks_simseq_2seq_listtask_switchAB_fMRI,681160,43521,25413,6,37,237,A2,glasses,3,2@,6220.256631,6578.2719402,358.0153092,0,0
2331,2@,1,52,12,22,41,61,31,Abstract_Concrete_6tasks_simseq_2seq_listtask_switchAB_fMRI,681160,43521,25413,6,38,238,B5,glasses,3,2@,6220.256631,6587.2700421,367.0134111,0,0
955,8*,1,51,11,22,41,62,31,Abstract_Concrete_6tasks_simseq_2seq_listtask_switchAB_fMRI,681160,43521,25413,6,39,239,A5,helmet,1,8*,6220.256631,6597.2828983,377.0262673,0,0
3574,8*,1,51,11,21,41,61,32,Abstract_Concrete_6tasks_simseq_2seq_listtask_switchAB_fMRI,681160,43521,25413,6,40,240,B4,helmet,1,8*,6220.256631,6605.2738209,385.0171899,0,0
