rt1,resp1,correct1,features_1,features_2,features_3,features_4,features_5,features_6,ExpName,subNo,seqA,seqB,block,trial,trialnum,cuetype,task,subtaskcode,corr_resp1,onsetTime_s,onsetTime_cue,onset_cue,onsetTime_cue_fb,onset_cue_fb
5608,8*,1,61,11,31,21,52,42,Abstract_Concrete_6tasks_simseq_2seq_listtask_switchAB_fMRI,686402,54321,23514,1,1,1,B4,helmet,1,8*,3624.1925756,3632.2037351,8.01115949999985,0,0
6597,8*,0,61,12,32,21,52,41,Abstract_Concrete_6tasks_simseq_2seq_listtask_switchAB_fMRI,686402,54321,23514,1,2,2,A4,vest,2,4$,3624.1925756,3645.2030322,21.0104566,3651.8220225,27.6294468999999
2647,3#,1,62,11,31,22,51,42,Abstract_Concrete_6tasks_simseq_2seq_listtask_switchAB_fMRI,686402,54321,23514,1,3,3,B5,weapon,5,3#,3624.1925756,3659.2040591,35.0114834999999,0,0
4618,4$,1,62,12,32,22,52,42,Abstract_Concrete_6tasks_simseq_2seq_listtask_switchAB_fMRI,686402,54321,23514,1,4,4,A4,vest,2,4$,3624.1925756,3669.2033819,45.0108062999998,0,0
3755,8*,1,61,11,31,21,51,42,Abstract_Concrete_6tasks_simseq_2seq_listtask_switchAB_fMRI,686402,54321,23514,1,5,5,B4,helmet,1,8*,3624.1925756,3681.2047942,57.0122185999999,0,0
3347,3#,1,61,11,31,22,51,41,Abstract_Concrete_6tasks_simseq_2seq_listtask_switchAB_fMRI,686402,54321,23514,1,6,6,A2,weapon,5,3#,3624.1925756,3692.2058154,68.0132398000001,0,0
3195,9(,1,62,12,32,21,52,42,Abstract_Concrete_6tasks_simseq_2seq_listtask_switchAB_fMRI,686402,54321,23514,1,7,7,B2,glasses,3,9(,3624.1925756,3703.2033592,79.0107835999997,0,0
2059,3#,1,62,11,32,22,51,42,Abstract_Concrete_6tasks_simseq_2seq_listtask_switchAB_fMRI,686402,54321,23514,1,8,8,A2,weapon,5,3#,3624.1925756,3714.204786,90.0122103999997,0,0
3811,3#,0,62,11,32,21,51,41,Abstract_Concrete_6tasks_simseq_2seq_listtask_switchAB_fMRI,686402,54321,23514,1,9,9,B4,helmet,1,8*,3624.1925756,3724.2034769,100.0109013,3728.0303868,103.8378112
2599,9(,1,61,11,31,21,51,42,Abstract_Concrete_6tasks_simseq_2seq_listtask_switchAB_fMRI,686402,54321,23514,1,10,10,A3,glasses,3,9(,3624.1925756,3735.2025881,111.0100125,0,0
3126,4$,1,62,11,31,22,51,41,Abstract_Concrete_6tasks_simseq_2seq_listtask_switchAB_fMRI,686402,54321,23514,1,11,11,B1,vest,2,4$,3624.1925756,3745.2045661,121.0119905,0,0
1434,3#,1,61,11,32,22,51,41,Abstract_Concrete_6tasks_simseq_2seq_listtask_switchAB_fMRI,686402,54321,23514,1,12,12,A2,weapon,5,3#,3624.1925756,3756.204738,132.0121624,0,0
5873,9(,1,62,12,32,22,51,42,Abstract_Concrete_6tasks_simseq_2seq_listtask_switchAB_fMRI,686402,54321,23514,1,13,13,B2,glasses,3,9(,3624.1925756,3765.2034153,141.0108397,0,0
1641,4$,1,61,12,32,21,52,42,Abstract_Concrete_6tasks_simseq_2seq_listtask_switchAB_fMRI,686402,54321,23514,1,14,14,A4,vest,2,4$,3624.1925756,3778.2033256,154.01075,0,0
1644,9(,1,62,12,32,21,52,42,Abstract_Concrete_6tasks_simseq_2seq_listtask_switchAB_fMRI,686402,54321,23514,1,15,15,B2,glasses,3,9(,3624.1925756,3787.2042694,163.0116938,0,0
4053,8*,1,62,12,32,21,52,41,Abstract_Concrete_6tasks_simseq_2seq_listtask_switchAB_fMRI,686402,54321,23514,1,16,16,A5,helmet,1,8*,3624.1925756,3796.2059577,172.0133821,0,0
2540,7&,1,62,12,31,22,51,41,Abstract_Concrete_6tasks_simseq_2seq_listtask_switchAB_fMRI,686402,54321,23514,1,17,17,B3,tools,6,7&,3624.1925756,3808.2054931,184.0129175,0,0
3674,9(,1,61,12,31,22,52,41,Abstract_Concrete_6tasks_simseq_2seq_listtask_switchAB_fMRI,686402,54321,23514,1,18,18,A3,glasses,3,9(,3624.1925756,3818.2058196,194.013244,0,0
3996,7&,1,61,11,31,22,52,42,Abstract_Concrete_6tasks_simseq_2seq_listtask_switchAB_fMRI,686402,54321,23514,1,19,19,B3,tools,6,7&,3624.1925756,3829.2054228,205.0128472,0,0
3995,4$,1,62,12,31,21,52,42,Abstract_Concrete_6tasks_simseq_2seq_listtask_switchAB_fMRI,686402,54321,23514,1,20,20,A4,vest,2,4$,3624.1925756,3841.2043861,217.0118105,0,0
3560,3#,1,62,12,32,22,51,41,Abstract_Concrete_6tasks_simseq_2seq_listtask_switchAB_fMRI,686402,54321,23514,1,21,21,B5,weapon,5,3#,3624.1925756,3853.2047097,229.0121341,0,0
2183,8*,1,62,12,31,22,51,41,Abstract_Concrete_6tasks_simseq_2seq_listtask_switchAB_fMRI,686402,54321,23514,1,22,22,A5,helmet,1,8*,3624.1925756,3864.2042797,240.0117041,0,0
5130,8*,1,61,12,32,21,51,41,Abstract_Concrete_6tasks_simseq_2seq_listtask_switchAB_fMRI,686402,54321,23514,1,23,23,B4,helmet,1,8*,3624.1925756,3874.2034993,250.0109237,0,0
2626,9(,1,62,11,31,22,52,41,Abstract_Concrete_6tasks_simseq_2seq_listtask_switchAB_fMRI,686402,54321,23514,1,24,24,A3,glasses,3,9(,3624.1925756,3887.2042288,263.0116532,0,0
2107,9(,1,62,11,32,21,51,41,Abstract_Concrete_6tasks_simseq_2seq_listtask_switchAB_fMRI,686402,54321,23514,1,25,25,B2,glasses,3,9(,3624.1925756,3897.2023322,273.0097566,0,0
2327,7&,1,61,12,32,22,51,41,Abstract_Concrete_6tasks_simseq_2seq_listtask_switchAB_fMRI,686402,54321,23514,1,26,26,A1,tools,6,7&,3624.1925756,3907.2045607,283.0119851,0,0
2108,3#,1,62,11,31,22,51,42,Abstract_Concrete_6tasks_simseq_2seq_listtask_switchAB_fMRI,686402,54321,23514,1,27,27,B5,weapon,5,3#,3624.1925756,3917.2033891,293.0108135,0,0
3435,8*,1,61,12,31,22,52,41,Abstract_Concrete_6tasks_simseq_2seq_listtask_switchAB_fMRI,686402,54321,23514,1,28,28,A5,helmet,1,8*,3624.1925756,3927.2046188,303.0120432,0,0
3842,4$,1,62,12,31,22,51,42,Abstract_Concrete_6tasks_simseq_2seq_listtask_switchAB_fMRI,686402,54321,23514,1,29,29,B1,vest,2,4$,3624.1925756,3938.205544,314.0129684,0,0
3102,8*,1,62,12,31,22,51,42,Abstract_Concrete_6tasks_simseq_2seq_listtask_switchAB_fMRI,686402,54321,23514,1,30,30,A5,helmet,1,8*,3624.1925756,3949.2040552,325.0114796,0,0
2135,4$,1,61,11,31,22,51,41,Abstract_Concrete_6tasks_simseq_2seq_listtask_switchAB_fMRI,686402,54321,23514,1,31,31,B1,vest,2,4$,3624.1925756,3960.2044902,336.0119146,0,0
5556,3#,1,62,12,31,21,52,42,Abstract_Concrete_6tasks_simseq_2seq_listtask_switchAB_fMRI,686402,54321,23514,1,32,32,A2,weapon,5,3#,3624.1925756,3970.2043781,346.0118025,0,0
1729,4$,1,61,12,31,22,51,41,Abstract_Concrete_6tasks_simseq_2seq_listtask_switchAB_fMRI,686402,54321,23514,1,33,33,B1,vest,2,4$,3624.1925756,3983.2038833,359.0113077,0,0
1847,7&,1,61,11,31,21,52,42,Abstract_Concrete_6tasks_simseq_2seq_listtask_switchAB_fMRI,686402,54321,23514,1,34,34,A1,tools,6,7&,3624.1925756,3992.205856,368.0132804,0,0
2591,3#,1,62,12,31,22,52,41,Abstract_Concrete_6tasks_simseq_2seq_listtask_switchAB_fMRI,686402,54321,23514,1,35,35,B5,weapon,5,3#,3624.1925756,4001.2051419,377.0125663,0,0
2557,9(,1,61,12,31,22,52,42,Abstract_Concrete_6tasks_simseq_2seq_listtask_switchAB_fMRI,686402,54321,23514,1,36,36,A3,glasses,3,9(,3624.1925756,4011.2042488,387.0116732,0,0
2528,7&,1,62,12,31,21,52,42,Abstract_Concrete_6tasks_simseq_2seq_listtask_switchAB_fMRI,686402,54321,23514,1,37,37,B3,tools,6,7&,3624.1925756,4021.2032696,397.010694,0,0
1221,7&,1,61,12,32,21,51,42,Abstract_Concrete_6tasks_simseq_2seq_listtask_switchAB_fMRI,686402,54321,23514,1,38,38,A1,tools,6,7&,3624.1925756,4031.2054524,407.0128768,0,0
2068,7&,1,62,11,32,22,51,42,Abstract_Concrete_6tasks_simseq_2seq_listtask_switchAB_fMRI,686402,54321,23514,1,39,39,B3,tools,6,7&,3624.1925756,4040.2054431,416.0128675,0,0
1735,7&,1,62,11,32,22,52,41,Abstract_Concrete_6tasks_simseq_2seq_listtask_switchAB_fMRI,686402,54321,23514,1,40,40,A1,tools,6,7&,3624.1925756,4050.205931,426.0133554,0,0
2598,3#,1,61,11,32,21,52,42,Abstract_Concrete_6tasks_simseq_2seq_listtask_switchAB_fMRI,686402,54321,23514,2,1,41,A2,weapon,5,3#,4110.0634423,4118.0761209,8.01267860000007,0,0
4584,8*,1,61,12,32,21,51,41,Abstract_Concrete_6tasks_simseq_2seq_listtask_switchAB_fMRI,686402,54321,23514,2,2,42,B4,helmet,1,8*,4110.0634423,4128.0737256,18.0102833000001,0,0
2375,3#,0,61,12,31,22,51,42,Abstract_Concrete_6tasks_simseq_2seq_listtask_switchAB_fMRI,686402,54321,23514,2,3,43,A5,helmet,1,8*,4110.0634423,4140.0756492,30.0122068999999,4142.4673947,32.4039524
2282,4$,1,62,12,32,22,52,41,Abstract_Concrete_6tasks_simseq_2seq_listtask_switchAB_fMRI,686402,54321,23514,2,4,44,B1,vest,2,4$,4110.0634423,4150.074438,40.0109956999995,0,0
2612,3#,0,62,12,32,21,52,41,Abstract_Concrete_6tasks_simseq_2seq_listtask_switchAB_fMRI,686402,54321,23514,2,5,45,A4,vest,2,4$,4110.0634423,4160.075743,50.0123007000002,4162.7038035,52.6403611999995
4358,8*,1,61,12,31,22,52,42,Abstract_Concrete_6tasks_simseq_2seq_listtask_switchAB_fMRI,686402,54321,23514,2,6,46,B4,helmet,1,8*,4110.0634423,4170.074926,60.0114837000001,0,0
4438,4$,1,62,11,32,22,51,41,Abstract_Concrete_6tasks_simseq_2seq_listtask_switchAB_fMRI,686402,54321,23514,2,7,47,A4,vest,2,4$,4110.0634423,4182.0750215,72.0115791999997,0,0
2546,9(,1,62,11,31,21,52,42,Abstract_Concrete_6tasks_simseq_2seq_listtask_switchAB_fMRI,686402,54321,23514,2,8,48,B2,glasses,3,9(,4110.0634423,4194.0744361,84.0109937999996,0,0
2619,7&,1,61,11,32,22,52,41,Abstract_Concrete_6tasks_simseq_2seq_listtask_switchAB_fMRI,686402,54321,23514,2,9,49,A1,tools,6,7&,4110.0634423,4204.0745294,94.0110870999997,0,0
1646,9(,1,62,11,31,21,51,42,Abstract_Concrete_6tasks_simseq_2seq_listtask_switchAB_fMRI,686402,54321,23514,2,10,50,B2,glasses,3,9(,4110.0634423,4214.0741084,104.0106661,0,0
1001,7&,1,61,12,32,22,52,41,Abstract_Concrete_6tasks_simseq_2seq_listtask_switchAB_fMRI,686402,54321,23514,2,11,51,A1,tools,6,7&,4110.0634423,4223.076672,113.0132297,0,0
2417,9(,1,62,11,32,22,51,41,Abstract_Concrete_6tasks_simseq_2seq_listtask_switchAB_fMRI,686402,54321,23514,2,12,52,B2,glasses,3,9(,4110.0634423,4232.0760805,122.0126382,0,0
1101,9(,1,61,11,32,22,52,41,Abstract_Concrete_6tasks_simseq_2seq_listtask_switchAB_fMRI,686402,54321,23514,2,13,53,A3,glasses,3,9(,4110.0634423,4242.0748211,132.0113788,0,0
5638,3#,1,61,11,32,22,52,42,Abstract_Concrete_6tasks_simseq_2seq_listtask_switchAB_fMRI,686402,54321,23514,2,14,54,B5,weapon,5,3#,4110.0634423,4251.0773014,141.0138591,0,0
1773,8*,1,62,11,32,22,52,42,Abstract_Concrete_6tasks_simseq_2seq_listtask_switchAB_fMRI,686402,54321,23514,2,15,55,A5,helmet,1,8*,4110.0634423,4264.0756167,154.0121744,0,0
4101,8*,1,62,11,31,22,51,42,Abstract_Concrete_6tasks_simseq_2seq_listtask_switchAB_fMRI,686402,54321,23514,2,16,56,B4,helmet,1,8*,4110.0634423,4273.0750642,163.0116219,0,0
3859,3#,1,61,11,31,21,51,41,Abstract_Concrete_6tasks_simseq_2seq_listtask_switchAB_fMRI,686402,54321,23514,2,17,57,A2,weapon,5,3#,4110.0634423,4285.0747981,175.0113558,0,0
2767,3#,1,62,11,31,22,51,41,Abstract_Concrete_6tasks_simseq_2seq_listtask_switchAB_fMRI,686402,54321,23514,2,18,58,B5,weapon,5,3#,4110.0634423,4296.0756745,186.0122322,0,0
3386,4$,1,61,12,32,21,51,41,Abstract_Concrete_6tasks_simseq_2seq_listtask_switchAB_fMRI,686402,54321,23514,2,19,59,A4,vest,2,4$,4110.0634423,4306.0753432,196.0119009,0,0
4621,7&,1,62,12,32,22,51,41,Abstract_Concrete_6tasks_simseq_2seq_listtask_switchAB_fMRI,686402,54321,23514,2,20,60,B3,tools,6,7&,4110.0634423,4317.0768838,207.0134415,0,0
3880,4$,1,62,12,32,22,51,42,Abstract_Concrete_6tasks_simseq_2seq_listtask_switchAB_fMRI,686402,54321,23514,2,21,61,A4,vest,2,4$,4110.0634423,4329.0733546,219.0099123,0,0
4875,8*,1,62,12,31,21,52,42,Abstract_Concrete_6tasks_simseq_2seq_listtask_switchAB_fMRI,686402,54321,23514,2,22,62,B4,helmet,1,8*,4110.0634423,4340.0756437,230.0122014,0,0
0,,0,61,12,31,22,52,41,Abstract_Concrete_6tasks_simseq_2seq_listtask_switchAB_fMRI,686402,54321,23514,2,23,63,A3,glasses,3,9(,4110.0634423,4352.0761014,242.0126591,4361.1149229,251.0514806
3262,9(,1,61,11,31,22,52,42,Abstract_Concrete_6tasks_simseq_2seq_listtask_switchAB_fMRI,686402,54321,23514,2,24,64,B2,glasses,3,9(,4110.0634423,4369.0750057,259.011563399999,0,0
5858,8*,1,62,12,31,22,52,41,Abstract_Concrete_6tasks_simseq_2seq_listtask_switchAB_fMRI,686402,54321,23514,2,25,65,A5,helmet,1,8*,4110.0634423,4380.0772546,270.0138123,0,0
1587,3#,1,62,12,31,21,52,41,Abstract_Concrete_6tasks_simseq_2seq_listtask_switchAB_fMRI,686402,54321,23514,2,26,66,B5,weapon,5,3#,4110.0634423,4393.0738402,283.0103979,0,0
2013,8*,1,62,12,32,21,52,41,Abstract_Concrete_6tasks_simseq_2seq_listtask_switchAB_fMRI,686402,54321,23514,2,27,67,A5,helmet,1,8*,4110.0634423,4402.0748036,292.0113613,0,0
2126,4$,1,62,11,31,22,51,42,Abstract_Concrete_6tasks_simseq_2seq_listtask_switchAB_fMRI,686402,54321,23514,2,28,68,B1,vest,2,4$,4110.0634423,4412.0743504,302.0109081,0,0
3338,9(,1,61,12,31,21,51,42,Abstract_Concrete_6tasks_simseq_2seq_listtask_switchAB_fMRI,686402,54321,23514,2,29,69,A3,glasses,3,9(,4110.0634423,4422.0755141,312.0120718,0,0
2556,7&,1,61,11,32,21,52,41,Abstract_Concrete_6tasks_simseq_2seq_listtask_switchAB_fMRI,686402,54321,23514,2,30,70,B3,tools,6,7&,4110.0634423,4433.0771338,323.0136915,0,0
4311,7&,1,61,12,32,21,51,41,Abstract_Concrete_6tasks_simseq_2seq_listtask_switchAB_fMRI,686402,54321,23514,2,31,71,A1,tools,6,7&,4110.0634423,4443.074144,333.0107017,0,0
1445,4$,1,62,12,31,21,52,42,Abstract_Concrete_6tasks_simseq_2seq_listtask_switchAB_fMRI,686402,54321,23514,2,32,72,B1,vest,2,4$,4110.0634423,4455.076356,345.012913699999,0,0
3442,7&,1,62,12,32,22,51,41,Abstract_Concrete_6tasks_simseq_2seq_listtask_switchAB_fMRI,686402,54321,23514,2,33,73,A1,tools,6,7&,4110.0634423,4464.0765545,354.0131122,0,0
2679,7&,1,61,11,31,21,51,42,Abstract_Concrete_6tasks_simseq_2seq_listtask_switchAB_fMRI,686402,54321,23514,2,34,74,B3,tools,6,7&,4110.0634423,4475.074582,365.0111397,0,0
2154,3#,1,61,12,32,22,51,42,Abstract_Concrete_6tasks_simseq_2seq_listtask_switchAB_fMRI,686402,54321,23514,2,35,75,A2,weapon,5,3#,4110.0634423,4485.0759271,375.0124848,0,0
3542,7&,1,62,11,31,21,51,41,Abstract_Concrete_6tasks_simseq_2seq_listtask_switchAB_fMRI,686402,54321,23514,2,36,76,B3,tools,6,7&,4110.0634423,4495.0740501,385.0106078,0,0
2922,3#,1,61,11,32,22,51,42,Abstract_Concrete_6tasks_simseq_2seq_listtask_switchAB_fMRI,686402,54321,23514,2,37,77,A2,weapon,5,3#,4110.0634423,4506.0742921,396.0108498,0,0
1463,4$,1,62,11,31,21,52,42,Abstract_Concrete_6tasks_simseq_2seq_listtask_switchAB_fMRI,686402,54321,23514,2,38,78,B1,vest,2,4$,4110.0634423,4516.0741947,406.0107524,0,0
2146,9(,1,61,12,31,22,52,42,Abstract_Concrete_6tasks_simseq_2seq_listtask_switchAB_fMRI,686402,54321,23514,2,39,79,A3,glasses,3,9(,4110.0634423,4525.0751386,415.0116963,0,0
1384,3#,1,61,12,31,21,52,42,Abstract_Concrete_6tasks_simseq_2seq_listtask_switchAB_fMRI,686402,54321,23514,2,40,80,B5,weapon,5,3#,4110.0634423,4535.0763665,425.0129242,0,0
1902,3#,1,62,12,31,21,52,42,Abstract_Concrete_6tasks_simseq_2seq_listtask_switchAB_fMRI,686402,54321,23514,3,1,81,B5,weapon,5,3#,4586.4628298,4594.474393,8.01156320000064,0,0
2285,3#,1,62,12,32,22,51,42,Abstract_Concrete_6tasks_simseq_2seq_listtask_switchAB_fMRI,686402,54321,23514,3,2,82,A2,weapon,5,3#,4586.4628298,4603.4737372,17.0109074000002,0,0
3138,8*,1,62,11,31,21,52,41,Abstract_Concrete_6tasks_simseq_2seq_listtask_switchAB_fMRI,686402,54321,23514,3,3,83,B4,helmet,1,8*,4586.4628298,4613.4752815,27.0124517000004,0,0
1982,3#,1,62,12,32,21,51,41,Abstract_Concrete_6tasks_simseq_2seq_listtask_switchAB_fMRI,686402,54321,23514,3,4,84,A2,weapon,5,3#,4586.4628298,4624.4749592,38.0121294,0,0
4939,7&,1,62,12,32,21,52,41,Abstract_Concrete_6tasks_simseq_2seq_listtask_switchAB_fMRI,686402,54321,23514,3,5,85,B3,tools,6,7&,4586.4628298,4633.4742156,47.0113858000004,0,0
3356,8*,1,62,11,32,21,51,41,Abstract_Concrete_6tasks_simseq_2seq_listtask_switchAB_fMRI,686402,54321,23514,3,6,86,A5,helmet,1,8*,4586.4628298,4645.4748552,59.0120254000003,0,0
2004,4$,1,61,11,32,22,51,42,Abstract_Concrete_6tasks_simseq_2seq_listtask_switchAB_fMRI,686402,54321,23514,3,7,87,B1,vest,2,4$,4586.4628298,4656.4762066,70.0133768000005,0,0
2811,8*,1,61,11,32,21,51,41,Abstract_Concrete_6tasks_simseq_2seq_listtask_switchAB_fMRI,686402,54321,23514,3,8,88,A5,helmet,1,8*,4586.4628298,4666.475085,80.0122552000003,0,0
3266,7&,1,61,12,32,21,52,42,Abstract_Concrete_6tasks_simseq_2seq_listtask_switchAB_fMRI,686402,54321,23514,3,9,89,B3,tools,6,7&,4586.4628298,4676.4735795,90.0107496999999,0,0
3369,4$,1,62,12,31,22,51,42,Abstract_Concrete_6tasks_simseq_2seq_listtask_switchAB_fMRI,686402,54321,23514,3,10,90,A4,vest,2,4$,4586.4628298,4687.4766934,101.0138636,0,0
1545,7&,1,61,12,32,22,51,42,Abstract_Concrete_6tasks_simseq_2seq_listtask_switchAB_fMRI,686402,54321,23514,3,11,91,B3,tools,6,7&,4586.4628298,4698.4741005,112.0112707,0,0
2164,9(,1,62,11,31,22,52,42,Abstract_Concrete_6tasks_simseq_2seq_listtask_switchAB_fMRI,686402,54321,23514,3,12,92,A3,glasses,3,9(,4586.4628298,4707.4747592,121.011929400001,0,0
3431,8*,1,62,12,31,21,52,42,Abstract_Concrete_6tasks_simseq_2seq_listtask_switchAB_fMRI,686402,54321,23514,3,13,93,B4,helmet,1,8*,4586.4628298,4717.4772928,131.014463,0,0
4035,4$,1,61,12,32,22,52,42,Abstract_Concrete_6tasks_simseq_2seq_listtask_switchAB_fMRI,686402,54321,23514,3,14,94,A4,vest,2,4$,4586.4628298,4728.4738804,142.0110506,0,0
4020,9(,1,61,11,31,22,52,42,Abstract_Concrete_6tasks_simseq_2seq_listtask_switchAB_fMRI,686402,54321,23514,3,15,95,B2,glasses,3,9(,4586.4628298,4740.4766804,154.0138506,0,0
2528,7&,1,62,11,32,21,52,41,Abstract_Concrete_6tasks_simseq_2seq_listtask_switchAB_fMRI,686402,54321,23514,3,16,96,A1,tools,6,7&,4586.4628298,4752.4751242,166.0122944,0,0
3840,8*,1,61,11,31,22,52,42,Abstract_Concrete_6tasks_simseq_2seq_listtask_switchAB_fMRI,686402,54321,23514,3,17,97,B4,helmet,1,8*,4586.4628298,4762.4766191,176.0137893,0,0
2074,9(,1,62,11,32,21,52,42,Abstract_Concrete_6tasks_simseq_2seq_listtask_switchAB_fMRI,686402,54321,23514,3,18,98,A3,glasses,3,9(,4586.4628298,4773.4747526,187.0119228,0,0
2945,9(,1,61,11,31,22,52,41,Abstract_Concrete_6tasks_simseq_2seq_listtask_switchAB_fMRI,686402,54321,23514,3,19,99,B2,glasses,3,9(,4586.4628298,4783.4740843,197.0112545,0,0
2335,8*,1,61,11,32,22,52,42,Abstract_Concrete_6tasks_simseq_2seq_listtask_switchAB_fMRI,686402,54321,23514,3,20,100,A5,helmet,1,8*,4586.4628298,4793.475427,207.012597200001,0,0
1430,3#,1,61,12,32,21,51,41,Abstract_Concrete_6tasks_simseq_2seq_listtask_switchAB_fMRI,686402,54321,23514,3,21,101,B5,weapon,5,3#,4586.4628298,4803.4748314,217.0120016,0,0
1253,7&,1,62,11,32,22,52,41,Abstract_Concrete_6tasks_simseq_2seq_listtask_switchAB_fMRI,686402,54321,23514,3,22,102,A1,tools,6,7&,4586.4628298,4812.4769031,226.0140733,0,0
2246,9(,0,62,12,32,21,52,41,Abstract_Concrete_6tasks_simseq_2seq_listtask_switchAB_fMRI,686402,54321,23514,3,23,103,B3,tools,6,7&,4586.4628298,4821.4763377,235.0135079,4823.7382509,237.2754211
3283,4$,1,62,11,31,22,52,41,Abstract_Concrete_6tasks_simseq_2seq_listtask_switchAB_fMRI,686402,54321,23514,3,24,104,A4,vest,2,4$,4586.4628298,4831.473833,245.0110032,0,0
1533,3#,1,61,12,31,22,52,41,Abstract_Concrete_6tasks_simseq_2seq_listtask_switchAB_fMRI,686402,54321,23514,3,25,105,B5,weapon,5,3#,4586.4628298,4842.4744994,256.0116696,0,0
2991,3#,1,61,11,31,21,52,42,Abstract_Concrete_6tasks_simseq_2seq_listtask_switchAB_fMRI,686402,54321,23514,3,26,106,A2,weapon,5,3#,4586.4628298,4851.4759083,265.0130785,0,0
1988,4$,1,62,11,31,21,51,42,Abstract_Concrete_6tasks_simseq_2seq_listtask_switchAB_fMRI,686402,54321,23514,3,27,107,B1,vest,2,4$,4586.4628298,4862.475909,276.0130792,0,0
2674,9(,1,61,11,32,22,52,41,Abstract_Concrete_6tasks_simseq_2seq_listtask_switchAB_fMRI,686402,54321,23514,3,28,108,A3,glasses,3,9(,4586.4628298,4872.4764286,286.0135988,0,0
1195,4$,1,61,12,31,22,51,42,Abstract_Concrete_6tasks_simseq_2seq_listtask_switchAB_fMRI,686402,54321,23514,3,29,109,B1,vest,2,4$,4586.4628298,4882.4728833,296.0100535,0,0
1863,8*,1,61,11,31,21,52,41,Abstract_Concrete_6tasks_simseq_2seq_listtask_switchAB_fMRI,686402,54321,23514,3,30,110,A5,helmet,1,8*,4586.4628298,4891.4759786,305.013148800001,0,0
1315,4$,1,61,11,32,22,52,41,Abstract_Concrete_6tasks_simseq_2seq_listtask_switchAB_fMRI,686402,54321,23514,3,31,111,B1,vest,2,4$,4586.4628298,4900.4732691,314.0104393,0,0
2756,4$,1,61,11,31,21,51,42,Abstract_Concrete_6tasks_simseq_2seq_listtask_switchAB_fMRI,686402,54321,23514,3,32,112,A4,vest,2,4$,4586.4628298,4909.4758397,323.0130099,0,0
1979,3#,1,62,11,32,22,52,41,Abstract_Concrete_6tasks_simseq_2seq_listtask_switchAB_fMRI,686402,54321,23514,3,33,113,B5,weapon,5,3#,4586.4628298,4919.4750559,333.012226100001,0,0
1667,7&,1,61,12,31,22,51,42,Abstract_Concrete_6tasks_simseq_2seq_listtask_switchAB_fMRI,686402,54321,23514,3,34,114,A1,tools,6,7&,4586.4628298,4928.4755254,342.0126956,0,0
3277,8*,1,61,11,31,21,51,41,Abstract_Concrete_6tasks_simseq_2seq_listtask_switchAB_fMRI,686402,54321,23514,3,35,115,B4,helmet,1,8*,4586.4628298,4937.4741251,351.0112953,0,0
4819,9(,1,61,11,32,22,51,41,Abstract_Concrete_6tasks_simseq_2seq_listtask_switchAB_fMRI,686402,54321,23514,3,36,116,A3,glasses,3,9(,4586.4628298,4948.476531,362.0137012,0,0
4526,9(,1,61,11,32,21,51,41,Abstract_Concrete_6tasks_simseq_2seq_listtask_switchAB_fMRI,686402,54321,23514,3,37,117,B2,glasses,3,9(,4586.4628298,4960.4729454,374.0101156,0,0
1825,7&,1,61,12,32,22,51,41,Abstract_Concrete_6tasks_simseq_2seq_listtask_switchAB_fMRI,686402,54321,23514,3,38,118,A1,tools,6,7&,4586.4628298,4972.4756879,386.0128581,0,0
1600,9(,1,62,12,32,21,51,41,Abstract_Concrete_6tasks_simseq_2seq_listtask_switchAB_fMRI,686402,54321,23514,3,39,119,B2,glasses,3,9(,4586.4628298,4981.475534,395.0127042,0,0
2733,3#,1,61,12,32,22,51,42,Abstract_Concrete_6tasks_simseq_2seq_listtask_switchAB_fMRI,686402,54321,23514,3,40,120,A2,weapon,5,3#,4586.4628298,4990.47494,404.0121102,0,0
1682,8*,1,62,11,31,21,52,41,Abstract_Concrete_6tasks_simseq_2seq_listtask_switchAB_fMRI,686402,54321,23514,4,1,121,A5,helmet,1,8*,5167.9752587,5175.9888602,8.01360149999982,0,0
2145,3#,1,62,12,32,22,52,41,Abstract_Concrete_6tasks_simseq_2seq_listtask_switchAB_fMRI,686402,54321,23514,4,2,122,B5,weapon,5,3#,5167.9752587,5184.9873911,17.0121324000002,0,0
1309,8*,1,61,12,32,21,51,42,Abstract_Concrete_6tasks_simseq_2seq_listtask_switchAB_fMRI,686402,54321,23514,4,3,123,A5,helmet,1,8*,5167.9752587,5194.9859712,27.0107124999995,0,0
3438,7&,1,61,12,31,21,52,42,Abstract_Concrete_6tasks_simseq_2seq_listtask_switchAB_fMRI,686402,54321,23514,4,4,124,B3,tools,6,7&,5167.9752587,5203.9863436,36.0110848999993,0,0
3840,3#,1,61,11,31,22,51,42,Abstract_Concrete_6tasks_simseq_2seq_listtask_switchAB_fMRI,686402,54321,23514,4,5,125,A2,weapon,5,3#,5167.9752587,5214.987431,47.0121722999993,0,0
3296,9(,1,62,12,32,22,51,41,Abstract_Concrete_6tasks_simseq_2seq_listtask_switchAB_fMRI,686402,54321,23514,4,6,126,B2,glasses,3,9(,5167.9752587,5225.9872433,58.0119845999998,0,0
3312,9(,1,62,11,32,21,52,41,Abstract_Concrete_6tasks_simseq_2seq_listtask_switchAB_fMRI,686402,54321,23514,4,7,127,A3,glasses,3,9(,5167.9752587,5236.9876327,69.0123739999999,0,0
2643,7&,1,61,11,31,22,51,42,Abstract_Concrete_6tasks_simseq_2seq_listtask_switchAB_fMRI,686402,54321,23514,4,8,128,B3,tools,6,7&,5167.9752587,5247.9866826,80.0114238999995,0,0
1999,9(,1,62,12,32,22,52,41,Abstract_Concrete_6tasks_simseq_2seq_listtask_switchAB_fMRI,686402,54321,23514,4,9,129,A3,glasses,3,9(,5167.9752587,5257.9874733,90.0122145999994,0,0
3024,9(,1,61,11,31,22,52,42,Abstract_Concrete_6tasks_simseq_2seq_listtask_switchAB_fMRI,686402,54321,23514,4,10,130,B2,glasses,3,9(,5167.9752587,5267.9862779,100.011019199999,0,0
1523,8*,1,61,12,32,22,51,41,Abstract_Concrete_6tasks_simseq_2seq_listtask_switchAB_fMRI,686402,54321,23514,4,11,131,A5,helmet,1,8*,5167.9752587,5278.9877922,111.012533499999,0,0
3529,9(,1,62,12,31,22,51,42,Abstract_Concrete_6tasks_simseq_2seq_listtask_switchAB_fMRI,686402,54321,23514,4,12,132,B2,glasses,3,9(,5167.9752587,5287.9882828,120.0130241,0,0
3053,9(,1,61,11,31,21,51,41,Abstract_Concrete_6tasks_simseq_2seq_listtask_switchAB_fMRI,686402,54321,23514,4,13,133,A3,glasses,3,9(,5167.9752587,5298.9874816,131.0122229,0,0
1570,3#,1,62,11,31,22,52,41,Abstract_Concrete_6tasks_simseq_2seq_listtask_switchAB_fMRI,686402,54321,23514,4,14,134,B5,weapon,5,3#,5167.9752587,5309.9993045,142.0240458,0,0
2854,3#,1,61,12,31,21,52,42,Abstract_Concrete_6tasks_simseq_2seq_listtask_switchAB_fMRI,686402,54321,23514,4,15,135,A2,weapon,5,3#,5167.9752587,5318.9890637,151.013805,0,0
2460,7&,1,61,12,32,22,52,42,Abstract_Concrete_6tasks_simseq_2seq_listtask_switchAB_fMRI,686402,54321,23514,4,16,136,B3,tools,6,7&,5167.9752587,5328.9870099,161.0117512,0,0
1975,8*,1,62,12,32,22,51,42,Abstract_Concrete_6tasks_simseq_2seq_listtask_switchAB_fMRI,686402,54321,23514,4,17,137,A5,helmet,1,8*,5167.9752587,5338.987131,171.0118723,0,0
3951,8*,1,61,12,31,22,52,42,Abstract_Concrete_6tasks_simseq_2seq_listtask_switchAB_fMRI,686402,54321,23514,4,18,138,B4,helmet,1,8*,5167.9752587,5347.9863271,180.0110684,0,0
3632,7&,1,61,11,32,22,51,42,Abstract_Concrete_6tasks_simseq_2seq_listtask_switchAB_fMRI,686402,54321,23514,4,19,139,A1,tools,6,7&,5167.9752587,5358.9868229,191.0115642,0,0
3010,4$,1,62,11,31,21,51,41,Abstract_Concrete_6tasks_simseq_2seq_listtask_switchAB_fMRI,686402,54321,23514,4,20,140,B1,vest,2,4$,5167.9752587,5369.9864789,202.0112202,0,0
3987,4$,1,61,11,32,22,52,42,Abstract_Concrete_6tasks_simseq_2seq_listtask_switchAB_fMRI,686402,54321,23514,4,21,141,A4,vest,2,4$,5167.9752587,5380.9893787,213.01412,0,0
2954,7&,1,62,12,31,22,51,41,Abstract_Concrete_6tasks_simseq_2seq_listtask_switchAB_fMRI,686402,54321,23514,4,22,142,B3,tools,6,7&,5167.9752587,5392.9883121,225.0130534,0,0
3233,4$,1,61,11,31,21,52,41,Abstract_Concrete_6tasks_simseq_2seq_listtask_switchAB_fMRI,686402,54321,23514,4,23,143,A4,vest,2,4$,5167.9752587,5402.9862976,235.0110389,0,0
2517,3#,1,62,12,32,21,51,41,Abstract_Concrete_6tasks_simseq_2seq_listtask_switchAB_fMRI,686402,54321,23514,4,24,144,B5,weapon,5,3#,5167.9752587,5413.9840233,246.0087646,0,0
2876,3#,1,61,12,32,22,52,41,Abstract_Concrete_6tasks_simseq_2seq_listtask_switchAB_fMRI,686402,54321,23514,4,25,145,A2,weapon,5,3#,5167.9752587,5423.988442,256.0131833,0,0
4639,8*,1,61,11,31,22,52,41,Abstract_Concrete_6tasks_simseq_2seq_listtask_switchAB_fMRI,686402,54321,23514,4,26,146,B4,helmet,1,8*,5167.9752587,5433.9851129,266.0098542,0,0
3049,4$,1,61,11,32,22,51,41,Abstract_Concrete_6tasks_simseq_2seq_listtask_switchAB_fMRI,686402,54321,23514,4,27,147,A4,vest,2,4$,5167.9752587,5445.9868577,278.011598999999,0,0
2502,3#,1,61,11,31,22,51,42,Abstract_Concrete_6tasks_simseq_2seq_listtask_switchAB_fMRI,686402,54321,23514,4,28,148,B5,weapon,5,3#,5167.9752587,5456.9871196,289.0118609,0,0
1934,7&,1,61,12,31,22,51,41,Abstract_Concrete_6tasks_simseq_2seq_listtask_switchAB_fMRI,686402,54321,23514,4,29,149,A1,tools,6,7&,5167.9752587,5466.9878881,299.0126294,0,0
2044,8*,1,62,12,32,22,51,42,Abstract_Concrete_6tasks_simseq_2seq_listtask_switchAB_fMRI,686402,54321,23514,4,30,150,B4,helmet,1,8*,5167.9752587,5475.9859704,308.0107117,0,0
3479,9(,0,62,11,31,21,51,41,Abstract_Concrete_6tasks_simseq_2seq_listtask_switchAB_fMRI,686402,54321,23514,4,31,151,A2,weapon,5,3#,5167.9752587,5485.9851858,318.0099271,5489.4883649,321.5131062
2762,4$,1,61,11,32,22,52,42,Abstract_Concrete_6tasks_simseq_2seq_listtask_switchAB_fMRI,686402,54321,23514,4,32,152,B1,vest,2,4$,5167.9752587,5496.9876529,329.0123942,0,0
1727,9(,1,62,12,32,22,52,42,Abstract_Concrete_6tasks_simseq_2seq_listtask_switchAB_fMRI,686402,54321,23514,4,33,153,A3,glasses,3,9(,5167.9752587,5506.9856698,339.0104111,0,0
2270,9(,1,61,11,32,22,52,41,Abstract_Concrete_6tasks_simseq_2seq_listtask_switchAB_fMRI,686402,54321,23514,4,34,154,B2,glasses,3,9(,5167.9752587,5515.9861898,348.0109311,0,0
1892,7&,1,62,11,31,21,52,42,Abstract_Concrete_6tasks_simseq_2seq_listtask_switchAB_fMRI,686402,54321,23514,4,35,155,A1,tools,6,7&,5167.9752587,5525.9870031,358.0117444,0,0
2335,8*,1,62,11,32,21,52,42,Abstract_Concrete_6tasks_simseq_2seq_listtask_switchAB_fMRI,686402,54321,23514,4,36,156,B4,helmet,1,8*,5167.9752587,5534.9859116,367.0106529,0,0
1472,8*,0,61,12,32,21,51,41,Abstract_Concrete_6tasks_simseq_2seq_listtask_switchAB_fMRI,686402,54321,23514,4,37,157,A4,vest,2,4$,5167.9752587,5544.9870811,377.0118224,5546.4719547,378.496696
3711,4$,1,61,12,32,21,51,41,Abstract_Concrete_6tasks_simseq_2seq_listtask_switchAB_fMRI,686402,54321,23514,4,38,158,B1,vest,2,4$,5167.9752587,5553.9873288,386.0120701,0,0
1081,7&,1,61,11,32,21,52,42,Abstract_Concrete_6tasks_simseq_2seq_listtask_switchAB_fMRI,686402,54321,23514,4,39,159,A1,tools,6,7&,5167.9752587,5564.9873348,397.0120761,0,0
1922,4$,1,61,11,31,21,52,42,Abstract_Concrete_6tasks_simseq_2seq_listtask_switchAB_fMRI,686402,54321,23514,4,40,160,B1,vest,2,4$,5167.9752587,5573.9876672,406.0124085,0,0
2801,9(,0,61,12,32,22,52,41,Abstract_Concrete_6tasks_simseq_2seq_listtask_switchAB_fMRI,686402,54321,23514,5,1,161,B3,tools,6,7&,5624.2989485,5632.3092444,8.01029590000053,5635.1299407,10.8309921999999
1937,8*,1,61,12,32,22,51,42,Abstract_Concrete_6tasks_simseq_2seq_listtask_switchAB_fMRI,686402,54321,23514,5,2,162,A5,helmet,1,8*,5624.2989485,5642.3103217,18.0113732,0,0
3544,8*,1,61,11,32,22,51,42,Abstract_Concrete_6tasks_simseq_2seq_listtask_switchAB_fMRI,686402,54321,23514,5,3,163,B4,helmet,1,8*,5624.2989485,5651.310084,27.0111354999999,0,0
3595,3#,1,61,12,32,21,51,42,Abstract_Concrete_6tasks_simseq_2seq_listtask_switchAB_fMRI,686402,54321,23514,5,4,164,A2,weapon,5,3#,5624.2989485,5662.3123139,38.0133654000001,0,0
1749,3#,1,62,12,32,22,52,41,Abstract_Concrete_6tasks_simseq_2seq_listtask_switchAB_fMRI,686402,54321,23514,5,5,165,B5,weapon,5,3#,5624.2989485,5673.3123572,49.0134087000006,0,0
1857,7&,1,62,12,32,22,51,41,Abstract_Concrete_6tasks_simseq_2seq_listtask_switchAB_fMRI,686402,54321,23514,5,6,166,A1,tools,6,7&,5624.2989485,5682.3100692,58.0111207,0,0
4647,7&,1,62,11,32,22,51,41,Abstract_Concrete_6tasks_simseq_2seq_listtask_switchAB_fMRI,686402,54321,23514,5,7,167,B3,tools,6,7&,5624.2989485,5691.3097927,67.0108442000001,0,0
1751,9(,1,62,11,31,22,51,41,Abstract_Concrete_6tasks_simseq_2seq_listtask_switchAB_fMRI,686402,54321,23514,5,8,168,A3,glasses,3,9(,5624.2989485,5703.309322,79.0103735000002,0,0
1516,4$,1,61,11,31,22,52,42,Abstract_Concrete_6tasks_simseq_2seq_listtask_switchAB_fMRI,686402,54321,23514,5,9,169,B1,vest,2,4$,5624.2989485,5712.3108503,88.0119018000005,0,0
2435,3#,1,62,11,32,22,52,41,Abstract_Concrete_6tasks_simseq_2seq_listtask_switchAB_fMRI,686402,54321,23514,5,10,170,A2,weapon,5,3#,5624.2989485,5721.3134198,97.0144713,0,0
2933,7&,1,61,12,31,21,51,42,Abstract_Concrete_6tasks_simseq_2seq_listtask_switchAB_fMRI,686402,54321,23514,5,11,171,B3,tools,6,7&,5624.2989485,5731.3126459,107.0136974,0,0
2610,4$,1,62,12,32,22,52,41,Abstract_Concrete_6tasks_simseq_2seq_listtask_switchAB_fMRI,686402,54321,23514,5,12,172,A4,vest,2,4$,5624.2989485,5741.3098832,117.0109347,0,0
1750,8*,1,61,12,32,22,51,42,Abstract_Concrete_6tasks_simseq_2seq_listtask_switchAB_fMRI,686402,54321,23514,5,13,173,B4,helmet,1,8*,5624.2989485,5751.3109999,127.0120514,0,0
3424,4$,1,62,11,31,22,51,41,Abstract_Concrete_6tasks_simseq_2seq_listtask_switchAB_fMRI,686402,54321,23514,5,14,174,A4,vest,2,4$,5624.2989485,5760.310738,136.0117895,0,0
1618,3#,1,62,11,31,21,52,41,Abstract_Concrete_6tasks_simseq_2seq_listtask_switchAB_fMRI,686402,54321,23514,5,15,175,B5,weapon,5,3#,5624.2989485,5771.3108063,147.0118578,0,0
1317,3#,1,62,11,32,22,51,42,Abstract_Concrete_6tasks_simseq_2seq_listtask_switchAB_fMRI,686402,54321,23514,5,16,176,A2,weapon,5,3#,5624.2989485,5780.3121045,156.013156,0,0
2450,9(,1,61,11,31,22,51,42,Abstract_Concrete_6tasks_simseq_2seq_listtask_switchAB_fMRI,686402,54321,23514,5,17,177,B2,glasses,3,9(,5624.2989485,5789.3111628,165.0122143,0,0
2036,4$,1,61,11,32,21,52,41,Abstract_Concrete_6tasks_simseq_2seq_listtask_switchAB_fMRI,686402,54321,23514,5,18,178,A4,vest,2,4$,5624.2989485,5799.3108113,175.0118628,0,0
2218,4$,1,62,11,32,22,51,41,Abstract_Concrete_6tasks_simseq_2seq_listtask_switchAB_fMRI,686402,54321,23514,5,19,179,B1,vest,2,4$,5624.2989485,5809.3118323,185.0128838,0,0
2460,4$,1,61,12,32,22,51,41,Abstract_Concrete_6tasks_simseq_2seq_listtask_switchAB_fMRI,686402,54321,23514,5,20,180,A4,vest,2,4$,5624.2989485,5819.3118478,195.0128993,0,0
2029,3#,1,61,12,31,22,51,41,Abstract_Concrete_6tasks_simseq_2seq_listtask_switchAB_fMRI,686402,54321,23514,5,21,181,B5,weapon,5,3#,5624.2989485,5829.3104779,205.0115294,0,0
2129,8*,1,62,12,31,21,52,42,Abstract_Concrete_6tasks_simseq_2seq_listtask_switchAB_fMRI,686402,54321,23514,5,22,182,A5,helmet,1,8*,5624.2989485,5839.3117241,215.0127756,0,0
1966,9(,1,62,12,31,22,51,41,Abstract_Concrete_6tasks_simseq_2seq_listtask_switchAB_fMRI,686402,54321,23514,5,23,183,B2,glasses,3,9(,5624.2989485,5849.3113459,225.0123974,0,0
1569,8*,1,62,11,31,21,52,41,Abstract_Concrete_6tasks_simseq_2seq_listtask_switchAB_fMRI,686402,54321,23514,5,24,184,A5,helmet,1,8*,5624.2989485,5858.3094281,234.010479600001,0,0
2298,4$,1,62,11,32,22,51,42,Abstract_Concrete_6tasks_simseq_2seq_listtask_switchAB_fMRI,686402,54321,23514,5,25,185,B1,vest,2,4$,5624.2989485,5867.3097025,243.010754,0,0
1753,7&,1,62,11,31,21,51,41,Abstract_Concrete_6tasks_simseq_2seq_listtask_switchAB_fMRI,686402,54321,23514,5,26,186,A1,tools,6,7&,5624.2989485,5877.3118801,253.0129316,0,0
3095,8*,1,61,11,31,22,52,42,Abstract_Concrete_6tasks_simseq_2seq_listtask_switchAB_fMRI,686402,54321,23514,5,27,187,B4,helmet,1,8*,5624.2989485,5886.3094862,262.0105377,0,0
1545,9(,1,62,11,32,21,52,42,Abstract_Concrete_6tasks_simseq_2seq_listtask_switchAB_fMRI,686402,54321,23514,5,28,188,A3,glasses,3,9(,5624.2989485,5897.3123639,273.0134154,0,0
4169,9(,1,61,12,31,21,51,41,Abstract_Concrete_6tasks_simseq_2seq_listtask_switchAB_fMRI,686402,54321,23514,5,29,189,B2,glasses,3,9(,5624.2989485,5906.3119422,282.0129937,0,0
1297,8*,1,61,12,32,22,52,42,Abstract_Concrete_6tasks_simseq_2seq_listtask_switchAB_fMRI,686402,54321,23514,5,30,190,A5,helmet,1,8*,5624.2989485,5918.3105422,294.0115937,0,0
1895,4$,1,61,11,31,22,51,41,Abstract_Concrete_6tasks_simseq_2seq_listtask_switchAB_fMRI,686402,54321,23514,5,31,191,B1,vest,2,4$,5624.2989485,5927.3108304,303.0118819,0,0
1949,9(,1,61,11,31,22,51,42,Abstract_Concrete_6tasks_simseq_2seq_listtask_switchAB_fMRI,686402,54321,23514,5,32,192,A3,glasses,3,9(,5624.2989485,5936.3101091,312.0111606,0,0
1101,3#,1,61,12,32,21,52,42,Abstract_Concrete_6tasks_simseq_2seq_listtask_switchAB_fMRI,686402,54321,23514,5,33,193,B5,weapon,5,3#,5624.2989485,5945.3102331,321.0112846,0,0
2480,9(,0,61,12,32,21,51,41,Abstract_Concrete_6tasks_simseq_2seq_listtask_switchAB_fMRI,686402,54321,23514,5,34,194,A2,weapon,5,3#,5624.2989485,5954.3129348,330.0139863,5956.8096805,332.510732
2753,9(,1,61,12,31,21,51,42,Abstract_Concrete_6tasks_simseq_2seq_listtask_switchAB_fMRI,686402,54321,23514,5,35,195,B2,glasses,3,9(,5624.2989485,5964.3109575,340.012009,0,0
1718,7&,1,62,11,32,21,51,41,Abstract_Concrete_6tasks_simseq_2seq_listtask_switchAB_fMRI,686402,54321,23514,5,36,196,A1,tools,6,7&,5624.2989485,5974.3113518,350.0124033,0,0
2003,8*,1,62,12,31,21,51,42,Abstract_Concrete_6tasks_simseq_2seq_listtask_switchAB_fMRI,686402,54321,23514,5,37,197,B4,helmet,1,8*,5624.2989485,5983.3105339,359.011585400001,0,0
1704,7&,1,61,12,32,21,51,41,Abstract_Concrete_6tasks_simseq_2seq_listtask_switchAB_fMRI,686402,54321,23514,5,38,198,A1,tools,6,7&,5624.2989485,5993.310219,369.0112705,0,0
1877,9(,0,62,11,31,21,52,42,Abstract_Concrete_6tasks_simseq_2seq_listtask_switchAB_fMRI,686402,54321,23514,5,39,199,B3,tools,6,7&,5624.2989485,6002.3125966,378.0136481,6004.2002543,379.9013058
3248,9(,1,62,12,31,21,52,42,Abstract_Concrete_6tasks_simseq_2seq_listtask_switchAB_fMRI,686402,54321,23514,5,40,200,A3,glasses,3,9(,5624.2989485,6011.3087958,387.0098473,0,0
2179,9(,1,62,12,31,21,51,42,Abstract_Concrete_6tasks_simseq_2seq_listtask_switchAB_fMRI,686402,54321,23514,6,1,201,B2,glasses,3,9(,6055.4891718,6063.4999453,8.01077350000014,0,0
1678,8*,1,61,11,31,21,52,41,Abstract_Concrete_6tasks_simseq_2seq_listtask_switchAB_fMRI,686402,54321,23514,6,2,202,A5,helmet,1,8*,6055.4891718,6073.503102,18.0139301999998,0,0
2001,3#,1,61,11,31,21,51,42,Abstract_Concrete_6tasks_simseq_2seq_listtask_switchAB_fMRI,686402,54321,23514,6,3,203,B5,weapon,5,3#,6055.4891718,6082.5014009,27.0122290999998,0,0
3724,3#,1,62,11,31,22,52,41,Abstract_Concrete_6tasks_simseq_2seq_listtask_switchAB_fMRI,686402,54321,23514,6,4,204,A2,weapon,5,3#,6055.4891718,6092.5004901,37.0113183000003,0,0
2535,7&,1,62,12,31,22,51,41,Abstract_Concrete_6tasks_simseq_2seq_listtask_switchAB_fMRI,686402,54321,23514,6,5,205,B3,tools,6,7&,6055.4891718,6103.5013184,48.0121466000001,0,0
1435,3#,1,62,12,32,21,52,41,Abstract_Concrete_6tasks_simseq_2seq_listtask_switchAB_fMRI,686402,54321,23514,6,6,206,A2,weapon,5,3#,6055.4891718,6113.5012467,58.0120748999998,0,0
1417,7&,1,61,12,31,22,52,41,Abstract_Concrete_6tasks_simseq_2seq_listtask_switchAB_fMRI,686402,54321,23514,6,7,207,B3,tools,6,7&,6055.4891718,6122.5001265,67.0109547000002,0,0
3369,9(,1,61,12,31,21,51,42,Abstract_Concrete_6tasks_simseq_2seq_listtask_switchAB_fMRI,686402,54321,23514,6,8,208,A3,glasses,3,9(,6055.4891718,6131.500419,76.0112472000001,0,0
1554,4$,1,62,11,32,22,51,41,Abstract_Concrete_6tasks_simseq_2seq_listtask_switchAB_fMRI,686402,54321,23514,6,9,209,B1,vest,2,4$,6055.4891718,6142.5029395,87.0137677000002,0,0
1113,8*,1,62,12,32,22,52,41,Abstract_Concrete_6tasks_simseq_2seq_listtask_switchAB_fMRI,686402,54321,23514,6,10,210,A5,helmet,1,8*,6055.4891718,6151.5008066,96.0116348000001,0,0
2301,7&,1,62,11,32,22,52,42,Abstract_Concrete_6tasks_simseq_2seq_listtask_switchAB_fMRI,686402,54321,23514,6,11,211,B3,tools,6,7&,6055.4891718,6160.5035739,105.014402100001,0,0
1433,7&,1,62,11,32,21,52,42,Abstract_Concrete_6tasks_simseq_2seq_listtask_switchAB_fMRI,686402,54321,23514,6,12,212,A1,tools,6,7&,6055.4891718,6170.5012067,115.0120349,0,0
1348,7&,1,62,11,31,22,52,42,Abstract_Concrete_6tasks_simseq_2seq_listtask_switchAB_fMRI,686402,54321,23514,6,13,213,B3,tools,6,7&,6055.4891718,6179.5030467,124.0138749,0,0
1439,3#,1,62,11,31,22,52,42,Abstract_Concrete_6tasks_simseq_2seq_listtask_switchAB_fMRI,686402,54321,23514,6,14,214,A2,weapon,5,3#,6055.4891718,6188.5002729,133.0111011,0,0
1438,8*,1,62,11,32,21,52,42,Abstract_Concrete_6tasks_simseq_2seq_listtask_switchAB_fMRI,686402,54321,23514,6,15,215,B4,helmet,1,8*,6055.4891718,6197.502276,142.0131042,0,0
3956,9(,1,61,12,31,22,52,42,Abstract_Concrete_6tasks_simseq_2seq_listtask_switchAB_fMRI,686402,54321,23514,6,16,216,A3,glasses,3,9(,6055.4891718,6206.5006611,151.0114893,0,0
1566,4$,1,61,12,32,22,52,42,Abstract_Concrete_6tasks_simseq_2seq_listtask_switchAB_fMRI,686402,54321,23514,6,17,217,B1,vest,2,4$,6055.4891718,6217.5000324,162.0108606,0,0
1071,3#,1,62,12,31,22,51,41,Abstract_Concrete_6tasks_simseq_2seq_listtask_switchAB_fMRI,686402,54321,23514,6,18,218,A2,weapon,5,3#,6055.4891718,6226.5001579,171.0109861,0,0
1962,3#,1,62,12,31,22,51,42,Abstract_Concrete_6tasks_simseq_2seq_listtask_switchAB_fMRI,686402,54321,23514,6,19,219,B5,weapon,5,3#,6055.4891718,6235.502412,180.0132402,0,0
1294,7&,1,61,12,31,22,52,42,Abstract_Concrete_6tasks_simseq_2seq_listtask_switchAB_fMRI,686402,54321,23514,6,20,220,A1,tools,6,7&,6055.4891718,6244.4997804,189.010608600001,0,0
2548,9(,1,62,12,31,21,52,41,Abstract_Concrete_6tasks_simseq_2seq_listtask_switchAB_fMRI,686402,54321,23514,6,21,221,B2,glasses,3,9(,6055.4891718,6253.5015428,198.012371,0,0
1767,8*,1,61,12,31,21,51,42,Abstract_Concrete_6tasks_simseq_2seq_listtask_switchAB_fMRI,686402,54321,23514,6,22,222,A5,helmet,1,8*,6055.4891718,6263.5012555,208.0120837,0,0
1400,3#,1,62,12,31,21,51,41,Abstract_Concrete_6tasks_simseq_2seq_listtask_switchAB_fMRI,686402,54321,23514,6,23,223,B5,weapon,5,3#,6055.4891718,6272.5004852,217.0113134,0,0
2273,4$,1,62,11,31,21,52,41,Abstract_Concrete_6tasks_simseq_2seq_listtask_switchAB_fMRI,686402,54321,23514,6,24,224,A4,vest,2,4$,6055.4891718,6281.5016729,226.0125011,0,0
3214,4$,1,61,12,32,21,52,41,Abstract_Concrete_6tasks_simseq_2seq_listtask_switchAB_fMRI,686402,54321,23514,6,25,225,B1,vest,2,4$,6055.4891718,6291.5021286,236.0129568,0,0
2136,4$,1,61,12,31,22,52,41,Abstract_Concrete_6tasks_simseq_2seq_listtask_switchAB_fMRI,686402,54321,23514,6,26,226,A4,vest,2,4$,6055.4891718,6302.5008833,247.0117115,0,0
3413,8*,1,62,11,32,22,51,41,Abstract_Concrete_6tasks_simseq_2seq_listtask_switchAB_fMRI,686402,54321,23514,6,27,227,B4,helmet,1,8*,6055.4891718,6312.5009149,257.0117431,0,0
1544,8*,1,62,12,31,22,51,41,Abstract_Concrete_6tasks_simseq_2seq_listtask_switchAB_fMRI,686402,54321,23514,6,28,228,A5,helmet,1,8*,6055.4891718,6323.5028923,268.0137205,0,0
2361,8*,1,62,12,31,22,52,41,Abstract_Concrete_6tasks_simseq_2seq_listtask_switchAB_fMRI,686402,54321,23514,6,29,229,B4,helmet,1,8*,6055.4891718,6332.5013424,277.0121706,0,0
1480,7&,1,62,11,31,22,52,41,Abstract_Concrete_6tasks_simseq_2seq_listtask_switchAB_fMRI,686402,54321,23514,6,30,230,A1,tools,6,7&,6055.4891718,6342.4994463,287.0102745,0,0
1739,4$,1,61,12,32,22,51,41,Abstract_Concrete_6tasks_simseq_2seq_listtask_switchAB_fMRI,686402,54321,23514,6,31,231,B1,vest,2,4$,6055.4891718,6351.5000812,296.0109094,0,0
1871,4$,1,62,12,32,21,52,41,Abstract_Concrete_6tasks_simseq_2seq_listtask_switchAB_fMRI,686402,54321,23514,6,32,232,A4,vest,2,4$,6055.4891718,6360.4996894,305.0105176,0,0
2323,9(,1,62,11,31,21,52,42,Abstract_Concrete_6tasks_simseq_2seq_listtask_switchAB_fMRI,686402,54321,23514,6,33,233,B2,glasses,3,9(,6055.4891718,6369.4993833,314.0102115,0,0
2757,9(,1,61,12,32,21,52,41,Abstract_Concrete_6tasks_simseq_2seq_listtask_switchAB_fMRI,686402,54321,23514,6,34,234,A3,glasses,3,9(,6055.4891718,6379.500176,324.0110042,0,0
2301,9(,1,61,12,32,21,51,42,Abstract_Concrete_6tasks_simseq_2seq_listtask_switchAB_fMRI,686402,54321,23514,6,35,235,B2,glasses,3,9(,6055.4891718,6389.5003395,334.0111677,0,0
1261,9(,1,62,11,31,21,52,41,Abstract_Concrete_6tasks_simseq_2seq_listtask_switchAB_fMRI,686402,54321,23514,6,36,236,A3,glasses,3,9(,6055.4891718,6399.5005688,344.011397,0,0
1472,3#,1,61,11,31,21,52,41,Abstract_Concrete_6tasks_simseq_2seq_listtask_switchAB_fMRI,686402,54321,23514,6,37,237,B5,weapon,5,3#,6055.4891718,6408.5002972,353.0111254,0,0
1500,4$,1,62,12,32,21,52,42,Abstract_Concrete_6tasks_simseq_2seq_listtask_switchAB_fMRI,686402,54321,23514,6,38,238,A4,vest,2,4$,6055.4891718,6417.5020956,362.0129238,0,0
1998,8*,1,62,11,31,21,52,41,Abstract_Concrete_6tasks_simseq_2seq_listtask_switchAB_fMRI,686402,54321,23514,6,39,239,B4,helmet,1,8*,6055.4891718,6426.5000585,371.0108867,0,0
933,7&,1,62,11,32,21,52,41,Abstract_Concrete_6tasks_simseq_2seq_listtask_switchAB_fMRI,686402,54321,23514,6,40,240,A1,tools,6,7&,6055.4891718,6436.5012983,381.0121265,0,0
