rt1,resp1,correct1,features_1,features_2,features_3,features_4,features_5,features_6,ExpName,subNo,seqA,seqB,block,trial,trialnum,cuetype,task,subtaskcode,corr_resp1,onsetTime_s,onsetTime_cue,onset_cue,onsetTime_cue_fb,onset_cue_fb
6373,9(,1,52,41,31,61,12,21,Abstract_Concrete_6tasks_simseq_2seq_listtask_switchAB_fMRI,707328,32154,51342,1,1,1,A1,glasses,3,9(,12470.0595315,12478.0695897,8.01005820000137,0,0
4302,2@,1,52,42,31,61,11,22,Abstract_Concrete_6tasks_simseq_2seq_listtask_switchAB_fMRI,707328,32154,51342,1,2,2,B5,vest,2,2@,12470.0595315,12492.0707944,22.0112629000014,0,0
2733,3#,1,52,41,32,61,11,21,Abstract_Concrete_6tasks_simseq_2seq_listtask_switchAB_fMRI,707328,32154,51342,1,3,3,A3,helmet,1,3#,12470.0595315,12504.0717074,34.0121759000012,0,0
4111,9(,1,51,42,31,62,11,22,Abstract_Concrete_6tasks_simseq_2seq_listtask_switchAB_fMRI,707328,32154,51342,1,4,4,B3,glasses,3,9(,12470.0595315,12514.0718411,44.0123096000007,0,0
2134,9(,1,52,41,31,62,12,22,Abstract_Concrete_6tasks_simseq_2seq_listtask_switchAB_fMRI,707328,32154,51342,1,5,5,A1,glasses,3,9(,12470.0595315,12526.0723585,56.0128270000005,0,0
3881,2@,1,52,41,31,62,11,22,Abstract_Concrete_6tasks_simseq_2seq_listtask_switchAB_fMRI,707328,32154,51342,1,6,6,B5,vest,2,2@,12470.0595315,12536.0714989,66.0119674000016,0,0
4062,4$,1,52,41,31,62,11,22,Abstract_Concrete_6tasks_simseq_2seq_listtask_switchAB_fMRI,707328,32154,51342,1,7,7,A4,tools,6,4$,12470.0595315,12547.071247,77.0117155000007,0,0
3276,7&,1,52,41,31,61,12,21,Abstract_Concrete_6tasks_simseq_2seq_listtask_switchAB_fMRI,707328,32154,51342,1,8,8,B4,weapon,5,7&,12470.0595315,12559.0727948,89.0132633000012,0,0
5256,7&,1,52,41,31,61,12,22,Abstract_Concrete_6tasks_simseq_2seq_listtask_switchAB_fMRI,707328,32154,51342,1,9,9,A5,weapon,5,7&,12470.0595315,12570.0729815,100.01345,0,0
5336,7&,1,52,42,31,61,12,21,Abstract_Concrete_6tasks_simseq_2seq_listtask_switchAB_fMRI,707328,32154,51342,1,10,10,B4,weapon,5,7&,12470.0595315,12583.0713804,113.011848900001,0,0
3812,3#,1,51,41,31,62,11,21,Abstract_Concrete_6tasks_simseq_2seq_listtask_switchAB_fMRI,707328,32154,51342,1,11,11,A3,helmet,1,3#,12470.0595315,12596.0727424,126.013210900001,0,0
4125,9(,1,51,41,32,61,12,21,Abstract_Concrete_6tasks_simseq_2seq_listtask_switchAB_fMRI,707328,32154,51342,1,12,12,B3,glasses,3,9(,12470.0595315,12607.0717138,137.012182300001,0,0
3082,3#,1,51,42,31,61,12,21,Abstract_Concrete_6tasks_simseq_2seq_listtask_switchAB_fMRI,707328,32154,51342,1,13,13,A3,helmet,1,3#,12470.0595315,12619.0727265,149.013195000001,0,0
3404,4$,1,51,42,32,61,12,21,Abstract_Concrete_6tasks_simseq_2seq_listtask_switchAB_fMRI,707328,32154,51342,1,14,14,B1,tools,6,4$,12470.0595315,12630.0726844,160.013152900001,0,0
5813,4$,1,51,42,31,61,12,22,Abstract_Concrete_6tasks_simseq_2seq_listtask_switchAB_fMRI,707328,32154,51342,1,15,15,A4,tools,6,4$,12470.0595315,12641.073215,171.013683500001,0,0
3339,7&,1,51,41,32,61,11,22,Abstract_Concrete_6tasks_simseq_2seq_listtask_switchAB_fMRI,707328,32154,51342,1,16,16,B4,weapon,5,7&,12470.0595315,12654.071706,184.012174500001,0,0
2286,2@,1,52,42,32,62,12,21,Abstract_Concrete_6tasks_simseq_2seq_listtask_switchAB_fMRI,707328,32154,51342,1,17,17,A2,vest,2,2@,12470.0595315,12665.07147,195.011938500002,0,0
3580,2@,1,51,42,31,62,11,22,Abstract_Concrete_6tasks_simseq_2seq_listtask_switchAB_fMRI,707328,32154,51342,1,18,18,B5,vest,2,2@,12470.0595315,12675.0720253,205.012493800001,0,0
3380,2@,1,51,41,31,61,11,22,Abstract_Concrete_6tasks_simseq_2seq_listtask_switchAB_fMRI,707328,32154,51342,1,19,19,A2,vest,2,2@,12470.0595315,12686.0712229,216.011691400001,0,0
3099,9(,1,52,42,31,62,11,22,Abstract_Concrete_6tasks_simseq_2seq_listtask_switchAB_fMRI,707328,32154,51342,1,20,20,B3,glasses,3,9(,12470.0595315,12697.0703186,227.0107871,0,0
2819,7&,1,52,42,32,61,11,21,Abstract_Concrete_6tasks_simseq_2seq_listtask_switchAB_fMRI,707328,32154,51342,1,21,21,A5,weapon,5,7&,12470.0595315,12708.0709344,238.011402900001,0,0
3042,4$,1,51,42,31,62,12,21,Abstract_Concrete_6tasks_simseq_2seq_listtask_switchAB_fMRI,707328,32154,51342,1,22,22,B1,tools,6,4$,12470.0595315,12718.071061,248.011529500001,0,0
2966,3#,1,52,42,31,62,11,22,Abstract_Concrete_6tasks_simseq_2seq_listtask_switchAB_fMRI,707328,32154,51342,1,23,23,A3,helmet,1,3#,12470.0595315,12729.0727676,259.013236100001,0,0
2389,2@,1,52,41,32,62,11,21,Abstract_Concrete_6tasks_simseq_2seq_listtask_switchAB_fMRI,707328,32154,51342,1,24,24,B5,vest,2,2@,12470.0595315,12739.0709479,269.011416400001,0,0
2135,7&,1,52,42,31,62,12,22,Abstract_Concrete_6tasks_simseq_2seq_listtask_switchAB_fMRI,707328,32154,51342,1,25,25,A5,weapon,5,7&,12470.0595315,12749.0712179,279.011686400001,0,0
2606,4$,1,51,41,31,62,11,21,Abstract_Concrete_6tasks_simseq_2seq_listtask_switchAB_fMRI,707328,32154,51342,1,26,26,B1,tools,6,4$,12470.0595315,12759.0720683,289.012536800001,0,0
2326,9(,1,52,42,32,61,12,21,Abstract_Concrete_6tasks_simseq_2seq_listtask_switchAB_fMRI,707328,32154,51342,1,27,27,A1,glasses,3,9(,12470.0595315,12769.0700803,299.010548800001,0,0
3149,4$,1,51,41,31,62,11,22,Abstract_Concrete_6tasks_simseq_2seq_listtask_switchAB_fMRI,707328,32154,51342,1,28,28,B1,tools,6,4$,12470.0595315,12779.0700201,309.010488600001,0,0
2946,9(,1,52,41,31,62,11,22,Abstract_Concrete_6tasks_simseq_2seq_listtask_switchAB_fMRI,707328,32154,51342,1,29,29,A1,glasses,3,9(,12470.0595315,12790.0731996,320.0136681,0,0
3088,3#,1,52,42,31,61,12,22,Abstract_Concrete_6tasks_simseq_2seq_listtask_switchAB_fMRI,707328,32154,51342,1,30,30,B2,helmet,1,3#,12470.0595315,12800.0711141,330.0115826,0,0
3086,4$,1,52,41,32,62,11,21,Abstract_Concrete_6tasks_simseq_2seq_listtask_switchAB_fMRI,707328,32154,51342,1,31,31,A4,tools,6,4$,12470.0595315,12811.0723456,341.0128141,0,0
3943,9(,1,51,42,31,62,12,21,Abstract_Concrete_6tasks_simseq_2seq_listtask_switchAB_fMRI,707328,32154,51342,1,32,32,B3,glasses,3,9(,12470.0595315,12822.0710454,352.011513900001,0,0
2402,4$,1,51,41,31,61,12,22,Abstract_Concrete_6tasks_simseq_2seq_listtask_switchAB_fMRI,707328,32154,51342,1,33,33,A4,tools,6,4$,12470.0595315,12833.0701257,363.010594200001,0,0
2729,3#,1,51,41,31,61,11,21,Abstract_Concrete_6tasks_simseq_2seq_listtask_switchAB_fMRI,707328,32154,51342,1,34,34,B2,helmet,1,3#,12470.0595315,12843.0725946,373.013063100001,0,0
2672,2@,1,51,41,31,62,11,21,Abstract_Concrete_6tasks_simseq_2seq_listtask_switchAB_fMRI,707328,32154,51342,1,35,35,A2,vest,2,2@,12470.0595315,12853.0701683,383.010636800002,0,0
4153,3#,1,52,41,31,61,11,21,Abstract_Concrete_6tasks_simseq_2seq_listtask_switchAB_fMRI,707328,32154,51342,1,36,36,B2,helmet,1,3#,12470.0595315,12863.0726283,393.013096800001,0,0
5018,2@,1,52,42,31,62,11,21,Abstract_Concrete_6tasks_simseq_2seq_listtask_switchAB_fMRI,707328,32154,51342,1,37,37,A2,vest,2,2@,12470.0595315,12875.0713337,405.011802200001,0,0
1832,3#,1,52,41,32,62,11,22,Abstract_Concrete_6tasks_simseq_2seq_listtask_switchAB_fMRI,707328,32154,51342,1,38,38,B2,helmet,1,3#,12470.0595315,12888.0706996,418.011168100002,0,0
3453,7&,1,51,42,31,62,11,22,Abstract_Concrete_6tasks_simseq_2seq_listtask_switchAB_fMRI,707328,32154,51342,1,39,39,A5,weapon,5,7&,12470.0595315,12897.072714,427.013182500001,0,0
4350,7&,1,52,42,32,61,12,21,Abstract_Concrete_6tasks_simseq_2seq_listtask_switchAB_fMRI,707328,32154,51342,1,40,40,B4,weapon,5,7&,12470.0595315,12908.071158,438.011626500002,0,0
5956,2@,1,52,42,31,61,11,22,Abstract_Concrete_6tasks_simseq_2seq_listtask_switchAB_fMRI,707328,32154,51342,2,1,41,B5,vest,2,2@,12960.2304693,12968.2398113,8.00934199999938,0,0
2923,7&,1,51,41,32,62,12,21,Abstract_Concrete_6tasks_simseq_2seq_listtask_switchAB_fMRI,707328,32154,51342,2,2,42,A5,weapon,5,7&,12960.2304693,12981.2396099,21.0091405999992,0,0
2281,3#,1,51,42,32,62,12,22,Abstract_Concrete_6tasks_simseq_2seq_listtask_switchAB_fMRI,707328,32154,51342,2,3,43,B2,helmet,1,3#,12960.2304693,12991.2423874,31.0119180999991,0,0
3096,4$,1,51,41,32,62,12,22,Abstract_Concrete_6tasks_simseq_2seq_listtask_switchAB_fMRI,707328,32154,51342,2,4,44,A4,tools,6,4$,12960.2304693,13001.2428241,41.0123547999992,0,0
3775,3#,1,52,42,31,61,12,21,Abstract_Concrete_6tasks_simseq_2seq_listtask_switchAB_fMRI,707328,32154,51342,2,5,45,B2,helmet,1,3#,12960.2304693,13012.2447665,52.0142971999994,0,0
2233,4$,1,52,41,32,61,12,21,Abstract_Concrete_6tasks_simseq_2seq_listtask_switchAB_fMRI,707328,32154,51342,2,6,46,A4,tools,6,4$,12960.2304693,13023.2436726,63.0132032999991,0,0
4604,9(,1,51,42,31,62,12,22,Abstract_Concrete_6tasks_simseq_2seq_listtask_switchAB_fMRI,707328,32154,51342,2,7,47,B3,glasses,3,9(,12960.2304693,13033.2427761,73.0123067999994,0,0
5021,3#,1,51,41,31,61,11,22,Abstract_Concrete_6tasks_simseq_2seq_listtask_switchAB_fMRI,707328,32154,51342,2,8,48,A3,helmet,1,3#,12960.2304693,13045.2418086,85.0113392999992,0,0
2010,2@,1,51,42,31,62,11,21,Abstract_Concrete_6tasks_simseq_2seq_listtask_switchAB_fMRI,707328,32154,51342,2,9,49,B5,vest,2,2@,12960.2304693,13058.2425001,98.0120307999987,0,0
3550,2@,1,51,42,32,61,12,21,Abstract_Concrete_6tasks_simseq_2seq_listtask_switchAB_fMRI,707328,32154,51342,2,10,50,A2,vest,2,2@,12960.2304693,13068.2426841,108.012214799999,0,0
2575,3#,1,51,42,31,62,12,22,Abstract_Concrete_6tasks_simseq_2seq_listtask_switchAB_fMRI,707328,32154,51342,2,11,51,B2,helmet,1,3#,12960.2304693,13079.2418524,119.0113831,0,0
2689,7&,1,52,41,32,62,11,22,Abstract_Concrete_6tasks_simseq_2seq_listtask_switchAB_fMRI,707328,32154,51342,2,12,52,A5,weapon,5,7&,12960.2304693,13089.2431829,129.012713599999,0,0
3705,9(,1,52,42,31,61,11,22,Abstract_Concrete_6tasks_simseq_2seq_listtask_switchAB_fMRI,707328,32154,51342,2,13,53,B3,glasses,3,9(,12960.2304693,13099.2436276,139.0131583,0,0
2311,9(,1,52,41,32,62,12,22,Abstract_Concrete_6tasks_simseq_2seq_listtask_switchAB_fMRI,707328,32154,51342,2,14,54,A1,glasses,3,9(,12960.2304693,13110.2424758,150.012006499999,0,0
4113,4$,1,52,42,31,61,11,21,Abstract_Concrete_6tasks_simseq_2seq_listtask_switchAB_fMRI,707328,32154,51342,2,15,55,B1,tools,6,4$,12960.2304693,13120.2425692,160.012099899999,0,0
4614,4$,1,52,42,31,61,12,21,Abstract_Concrete_6tasks_simseq_2seq_listtask_switchAB_fMRI,707328,32154,51342,2,16,56,A4,tools,6,4$,12960.2304693,13132.2402947,172.009825399999,0,0
4150,4$,1,52,42,31,62,11,22,Abstract_Concrete_6tasks_simseq_2seq_listtask_switchAB_fMRI,707328,32154,51342,2,17,57,B1,tools,6,4$,12960.2304693,13144.2430217,184.0125524,0,0
2078,3#,1,52,42,32,61,12,21,Abstract_Concrete_6tasks_simseq_2seq_listtask_switchAB_fMRI,707328,32154,51342,2,18,58,A3,helmet,1,3#,12960.2304693,13156.2427919,196.0123226,0,0
2453,4$,1,51,42,32,61,11,21,Abstract_Concrete_6tasks_simseq_2seq_listtask_switchAB_fMRI,707328,32154,51342,2,19,59,B1,tools,6,4$,12960.2304693,13166.2421363,206.011666999999,0,0
2556,9(,1,51,41,31,62,11,21,Abstract_Concrete_6tasks_simseq_2seq_listtask_switchAB_fMRI,707328,32154,51342,2,20,60,A1,glasses,3,9(,12960.2304693,13176.24388,216.013410699999,0,0
3271,9(,1,52,42,32,61,11,22,Abstract_Concrete_6tasks_simseq_2seq_listtask_switchAB_fMRI,707328,32154,51342,2,21,61,B3,glasses,3,9(,12960.2304693,13186.2415631,226.0110938,0,0
2432,9(,1,51,41,31,62,12,22,Abstract_Concrete_6tasks_simseq_2seq_listtask_switchAB_fMRI,707328,32154,51342,2,22,62,A1,glasses,3,9(,12960.2304693,13197.2421061,237.0116368,0,0
1751,4$,1,52,42,31,62,12,22,Abstract_Concrete_6tasks_simseq_2seq_listtask_switchAB_fMRI,707328,32154,51342,2,23,63,B1,tools,6,4$,12960.2304693,13207.2404676,247.0099983,0,0
2047,4$,1,51,41,32,62,12,21,Abstract_Concrete_6tasks_simseq_2seq_listtask_switchAB_fMRI,707328,32154,51342,2,24,64,A4,tools,6,4$,12960.2304693,13216.2412785,256.010809199999,0,0
2880,2@,1,51,41,31,61,12,22,Abstract_Concrete_6tasks_simseq_2seq_listtask_switchAB_fMRI,707328,32154,51342,2,25,65,B5,vest,2,2@,12960.2304693,13226.2431702,266.012700899999,0,0
3188,2@,1,52,41,31,62,11,22,Abstract_Concrete_6tasks_simseq_2seq_listtask_switchAB_fMRI,707328,32154,51342,2,26,66,A2,vest,2,2@,12960.2304693,13236.24187,276.011400699999,0,0
5297,2@,1,52,41,31,62,11,21,Abstract_Concrete_6tasks_simseq_2seq_listtask_switchAB_fMRI,707328,32154,51342,2,27,67,B5,vest,2,2@,12960.2304693,13247.2436399,287.013170599999,0,0
1760,7&,1,51,42,31,62,12,21,Abstract_Concrete_6tasks_simseq_2seq_listtask_switchAB_fMRI,707328,32154,51342,2,28,68,A5,weapon,5,7&,12960.2304693,13260.2423561,300.011886799999,0,0
3629,3#,1,52,41,32,62,12,21,Abstract_Concrete_6tasks_simseq_2seq_listtask_switchAB_fMRI,707328,32154,51342,2,29,69,B2,helmet,1,3#,12960.2304693,13269.2417939,309.0113246,0,0
3019,7&,1,52,42,31,61,12,22,Abstract_Concrete_6tasks_simseq_2seq_listtask_switchAB_fMRI,707328,32154,51342,2,30,70,A5,weapon,5,7&,12960.2304693,13280.2428503,320.012380999999,0,0
3260,7&,1,51,41,31,61,12,21,Abstract_Concrete_6tasks_simseq_2seq_listtask_switchAB_fMRI,707328,32154,51342,2,31,71,B4,weapon,5,7&,12960.2304693,13291.2424417,331.0119724,0,0
2639,3#,1,51,41,31,61,12,21,Abstract_Concrete_6tasks_simseq_2seq_listtask_switchAB_fMRI,707328,32154,51342,2,32,72,A3,helmet,1,3#,12960.2304693,13302.2424131,342.0119438,0,0
3267,9(,1,51,42,31,62,12,22,Abstract_Concrete_6tasks_simseq_2seq_listtask_switchAB_fMRI,707328,32154,51342,2,33,73,B3,glasses,3,9(,12960.2304693,13312.2435251,352.0130558,0,0
2031,2@,1,52,42,31,62,11,21,Abstract_Concrete_6tasks_simseq_2seq_listtask_switchAB_fMRI,707328,32154,51342,2,34,74,A2,vest,2,2@,12960.2304693,13323.2435481,363.013078799999,0,0
3594,7&,1,51,41,32,61,11,22,Abstract_Concrete_6tasks_simseq_2seq_listtask_switchAB_fMRI,707328,32154,51342,2,35,75,B4,weapon,5,7&,12960.2304693,13333.241992,373.011522699999,0,0
2477,3#,1,52,42,31,61,12,21,Abstract_Concrete_6tasks_simseq_2seq_listtask_switchAB_fMRI,707328,32154,51342,2,36,76,A3,helmet,1,3#,12960.2304693,13344.2425545,384.0120852,0,0
2076,7&,1,52,42,31,61,11,21,Abstract_Concrete_6tasks_simseq_2seq_listtask_switchAB_fMRI,707328,32154,51342,2,37,77,B4,weapon,5,7&,12960.2304693,13354.2413235,394.0108542,0,0
2363,9(,1,52,42,32,62,12,21,Abstract_Concrete_6tasks_simseq_2seq_listtask_switchAB_fMRI,707328,32154,51342,2,38,78,A1,glasses,3,9(,12960.2304693,13364.2424889,404.012019599999,0,0
4401,7&,1,51,41,31,62,11,22,Abstract_Concrete_6tasks_simseq_2seq_listtask_switchAB_fMRI,707328,32154,51342,2,39,79,B4,weapon,5,7&,12960.2304693,13374.2439217,414.013452399999,0,0
3569,2@,1,51,41,31,62,12,22,Abstract_Concrete_6tasks_simseq_2seq_listtask_switchAB_fMRI,707328,32154,51342,2,40,80,A2,vest,2,2@,12960.2304693,13386.2421471,426.011677799999,0,0
3808,2@,1,51,41,31,62,11,21,Abstract_Concrete_6tasks_simseq_2seq_listtask_switchAB_fMRI,707328,32154,51342,3,1,81,B5,vest,2,2@,13442.9359344,13450.9460311,8.01009669999985,0,0
1683,8*,0,52,41,32,62,11,21,Abstract_Concrete_6tasks_simseq_2seq_listtask_switchAB_fMRI,707328,32154,51342,3,2,82,A5,weapon,5,7&,13442.9359344,13461.9454798,19.0095454000002,13463.6508034,20.7148689999995
2915,7&,1,52,42,32,61,12,22,Abstract_Concrete_6tasks_simseq_2seq_listtask_switchAB_fMRI,707328,32154,51342,3,3,83,B4,weapon,5,7&,13442.9359344,13470.9465979,28.0106634999993,0,0
3441,2@,1,52,42,32,61,12,22,Abstract_Concrete_6tasks_simseq_2seq_listtask_switchAB_fMRI,707328,32154,51342,3,4,84,A2,vest,2,2@,13442.9359344,13480.9463994,38.0104649999994,0,0
4372,4$,1,51,42,31,61,11,21,Abstract_Concrete_6tasks_simseq_2seq_listtask_switchAB_fMRI,707328,32154,51342,3,5,85,B1,tools,6,4$,13442.9359344,13491.9472395,49.0113050999989,0,0
2089,7&,1,51,42,31,62,11,21,Abstract_Concrete_6tasks_simseq_2seq_listtask_switchAB_fMRI,707328,32154,51342,3,6,86,A5,weapon,5,7&,13442.9359344,13503.9482756,61.0123411999994,0,0
2653,7&,1,52,42,31,61,12,22,Abstract_Concrete_6tasks_simseq_2seq_listtask_switchAB_fMRI,707328,32154,51342,3,7,87,B4,weapon,5,7&,13442.9359344,13513.9474286,71.0114942,0,0
1938,2@,1,51,41,31,62,11,21,Abstract_Concrete_6tasks_simseq_2seq_listtask_switchAB_fMRI,707328,32154,51342,3,8,88,A2,vest,2,2@,13442.9359344,13523.9465724,81.0106379999997,0,0
1771,2@,1,52,41,31,61,12,21,Abstract_Concrete_6tasks_simseq_2seq_listtask_switchAB_fMRI,707328,32154,51342,3,9,89,B5,vest,2,2@,13442.9359344,13532.9465105,90.0105760999995,0,0
2809,3#,1,51,41,31,61,11,22,Abstract_Concrete_6tasks_simseq_2seq_listtask_switchAB_fMRI,707328,32154,51342,3,10,90,A3,helmet,1,3#,13442.9359344,13541.9470891,99.0111546999997,0,0
3827,7&,1,51,41,31,62,11,22,Abstract_Concrete_6tasks_simseq_2seq_listtask_switchAB_fMRI,707328,32154,51342,3,11,91,B4,weapon,5,7&,13442.9359344,13551.9479319,109.0119975,0,0
1776,3#,1,51,41,32,61,12,21,Abstract_Concrete_6tasks_simseq_2seq_listtask_switchAB_fMRI,707328,32154,51342,3,12,92,A3,helmet,1,3#,13442.9359344,13562.9480445,120.0121101,0,0
2825,9(,1,51,41,32,61,12,21,Abstract_Concrete_6tasks_simseq_2seq_listtask_switchAB_fMRI,707328,32154,51342,3,13,93,B3,glasses,3,9(,13442.9359344,13571.9484602,129.012525799999,0,0
3079,3#,1,51,42,31,62,11,22,Abstract_Concrete_6tasks_simseq_2seq_listtask_switchAB_fMRI,707328,32154,51342,3,14,94,A3,helmet,1,3#,13442.9359344,13581.9481283,139.0121939,0,0
2900,9(,1,52,42,32,62,12,21,Abstract_Concrete_6tasks_simseq_2seq_listtask_switchAB_fMRI,707328,32154,51342,3,15,95,B3,glasses,3,9(,13442.9359344,13592.9482744,150.012339999999,0,0
2146,4$,1,52,41,31,61,11,21,Abstract_Concrete_6tasks_simseq_2seq_listtask_switchAB_fMRI,707328,32154,51342,3,16,96,A4,tools,6,4$,13442.9359344,13602.9486996,160.012765199999,0,0
2171,2@,1,51,41,31,61,11,21,Abstract_Concrete_6tasks_simseq_2seq_listtask_switchAB_fMRI,707328,32154,51342,3,17,97,B5,vest,2,2@,13442.9359344,13612.9495352,170.013600799999,0,0
2184,7&,1,51,41,32,61,12,22,Abstract_Concrete_6tasks_simseq_2seq_listtask_switchAB_fMRI,707328,32154,51342,3,18,98,A5,weapon,5,7&,13442.9359344,13622.9481776,180.012243199999,0,0
2377,4$,1,52,42,31,62,12,22,Abstract_Concrete_6tasks_simseq_2seq_listtask_switchAB_fMRI,707328,32154,51342,3,19,99,B1,tools,6,4$,13442.9359344,13632.9490217,190.0130873,0,0
1802,4$,1,52,42,31,62,12,21,Abstract_Concrete_6tasks_simseq_2seq_listtask_switchAB_fMRI,707328,32154,51342,3,20,100,A4,tools,6,4$,13442.9359344,13642.9481868,200.0122524,0,0
2224,3#,1,51,41,31,61,11,22,Abstract_Concrete_6tasks_simseq_2seq_listtask_switchAB_fMRI,707328,32154,51342,3,21,101,B2,helmet,1,3#,13442.9359344,13651.9467153,209.0107809,0,0
3718,9(,1,52,42,31,62,12,21,Abstract_Concrete_6tasks_simseq_2seq_listtask_switchAB_fMRI,707328,32154,51342,3,22,102,A1,glasses,3,9(,13442.9359344,13661.9485112,219.0125768,0,0
3171,3#,1,52,42,32,61,11,21,Abstract_Concrete_6tasks_simseq_2seq_listtask_switchAB_fMRI,707328,32154,51342,3,23,103,B2,helmet,1,3#,13442.9359344,13672.9474936,230.0115592,0,0
4340,2@,1,51,42,31,61,11,22,Abstract_Concrete_6tasks_simseq_2seq_listtask_switchAB_fMRI,707328,32154,51342,3,24,104,A2,vest,2,2@,13442.9359344,13683.9493348,241.013400399999,0,0
3153,9(,1,51,41,31,62,12,21,Abstract_Concrete_6tasks_simseq_2seq_listtask_switchAB_fMRI,707328,32154,51342,3,25,105,B3,glasses,3,9(,13442.9359344,13695.9488641,253.0129297,0,0
2154,4$,1,51,42,31,62,11,21,Abstract_Concrete_6tasks_simseq_2seq_listtask_switchAB_fMRI,707328,32154,51342,3,26,106,A4,tools,6,4$,13442.9359344,13706.9476032,264.0116688,0,0
2490,2@,0,51,42,32,62,11,21,Abstract_Concrete_6tasks_simseq_2seq_listtask_switchAB_fMRI,707328,32154,51342,3,27,107,B2,helmet,1,3#,13442.9359344,13716.9489483,274.013013899999,13719.4555632,276.519628799999
4927,4$,1,52,41,31,62,11,22,Abstract_Concrete_6tasks_simseq_2seq_listtask_switchAB_fMRI,707328,32154,51342,3,28,108,A4,tools,6,4$,13442.9359344,13726.9442549,284.008320499999,0,0
4783,4$,1,51,41,31,62,11,21,Abstract_Concrete_6tasks_simseq_2seq_listtask_switchAB_fMRI,707328,32154,51342,3,29,109,B1,tools,6,4$,13442.9359344,13738.947138,296.011203599999,0,0
3603,7&,1,51,42,32,61,11,22,Abstract_Concrete_6tasks_simseq_2seq_listtask_switchAB_fMRI,707328,32154,51342,3,30,110,A5,weapon,5,7&,13442.9359344,13750.947498,308.011563599999,0,0
2724,9(,1,52,42,32,62,12,21,Abstract_Concrete_6tasks_simseq_2seq_listtask_switchAB_fMRI,707328,32154,51342,3,31,111,B3,glasses,3,9(,13442.9359344,13761.9466441,319.0107097,0,0
3368,3#,1,52,42,32,62,11,22,Abstract_Concrete_6tasks_simseq_2seq_listtask_switchAB_fMRI,707328,32154,51342,3,32,112,A3,helmet,1,3#,13442.9359344,13771.9468892,329.0109548,0,0
3499,7&,1,51,42,31,61,11,21,Abstract_Concrete_6tasks_simseq_2seq_listtask_switchAB_fMRI,707328,32154,51342,3,33,113,B4,weapon,5,7&,13442.9359344,13782.9466135,340.0106791,0,0
2222,9(,1,52,41,31,62,12,21,Abstract_Concrete_6tasks_simseq_2seq_listtask_switchAB_fMRI,707328,32154,51342,3,34,114,A1,glasses,3,9(,13442.9359344,13793.9488481,351.0129137,0,0
1974,2@,1,52,41,32,61,11,22,Abstract_Concrete_6tasks_simseq_2seq_listtask_switchAB_fMRI,707328,32154,51342,3,35,115,B5,vest,2,2@,13442.9359344,13803.9465362,361.010601799999,0,0
1613,9(,1,52,42,31,61,11,21,Abstract_Concrete_6tasks_simseq_2seq_listtask_switchAB_fMRI,707328,32154,51342,3,36,116,A1,glasses,3,9(,13442.9359344,13812.949083,370.013148599999,0,0
2247,4$,1,51,42,31,61,11,22,Abstract_Concrete_6tasks_simseq_2seq_listtask_switchAB_fMRI,707328,32154,51342,3,37,117,B1,tools,6,4$,13442.9359344,13821.9491022,379.0131678,0,0
2460,2@,1,51,42,31,62,11,22,Abstract_Concrete_6tasks_simseq_2seq_listtask_switchAB_fMRI,707328,32154,51342,3,38,118,A2,vest,2,2@,13442.9359344,13831.9467537,389.0108193,0,0
3017,3#,1,52,41,31,61,11,22,Abstract_Concrete_6tasks_simseq_2seq_listtask_switchAB_fMRI,707328,32154,51342,3,39,119,B2,helmet,1,3#,13442.9359344,13841.9465018,399.010567399999,0,0
2592,9(,1,52,42,31,62,11,22,Abstract_Concrete_6tasks_simseq_2seq_listtask_switchAB_fMRI,707328,32154,51342,3,40,120,A1,glasses,3,9(,13442.9359344,13852.9474222,410.0114878,0,0
2302,3#,1,51,41,32,61,12,21,Abstract_Concrete_6tasks_simseq_2seq_listtask_switchAB_fMRI,707328,32154,51342,4,1,121,A3,helmet,1,3#,13961.656066,13969.6656632,8.00959719999992,0,0
1886,4$,1,52,41,32,61,11,22,Abstract_Concrete_6tasks_simseq_2seq_listtask_switchAB_fMRI,707328,32154,51342,4,2,122,B1,tools,6,4$,13961.656066,13979.6666452,18.0105792000013,0,0
2485,9(,1,51,41,31,61,12,21,Abstract_Concrete_6tasks_simseq_2seq_listtask_switchAB_fMRI,707328,32154,51342,4,3,123,A1,glasses,3,9(,13961.656066,13988.6676957,27.0116297000004,0,0
1660,2@,1,52,42,32,61,12,22,Abstract_Concrete_6tasks_simseq_2seq_listtask_switchAB_fMRI,707328,32154,51342,4,4,124,B5,vest,2,2@,13961.656066,13998.6673701,37.0113041000004,0,0
1933,4$,1,52,41,31,62,12,21,Abstract_Concrete_6tasks_simseq_2seq_listtask_switchAB_fMRI,707328,32154,51342,4,5,125,A4,tools,6,4$,13961.656066,14007.6695684,46.013502400001,0,0
3742,9(,1,51,41,31,62,12,22,Abstract_Concrete_6tasks_simseq_2seq_listtask_switchAB_fMRI,707328,32154,51342,4,6,126,B3,glasses,3,9(,13961.656066,14016.6670216,55.0109556000007,0,0
3891,7&,1,52,42,31,62,12,22,Abstract_Concrete_6tasks_simseq_2seq_listtask_switchAB_fMRI,707328,32154,51342,4,7,127,A5,weapon,5,7&,13961.656066,14027.6674111,66.0113450999997,0,0
4467,7&,1,51,41,32,62,12,22,Abstract_Concrete_6tasks_simseq_2seq_listtask_switchAB_fMRI,707328,32154,51342,4,8,128,B4,weapon,5,7&,13961.656066,14038.6691142,77.0130482000004,0,0
1965,9(,1,52,42,31,61,11,22,Abstract_Concrete_6tasks_simseq_2seq_listtask_switchAB_fMRI,707328,32154,51342,4,9,129,A1,glasses,3,9(,13961.656066,14050.6681117,89.0120457000012,0,0
2781,9(,1,52,41,32,62,12,21,Abstract_Concrete_6tasks_simseq_2seq_listtask_switchAB_fMRI,707328,32154,51342,4,10,130,B3,glasses,3,9(,13961.656066,14059.6679294,98.0118634000009,0,0
4100,7&,1,52,42,32,61,12,22,Abstract_Concrete_6tasks_simseq_2seq_listtask_switchAB_fMRI,707328,32154,51342,4,11,131,A5,weapon,5,7&,13961.656066,14069.6684921,108.0124261,0,0
3024,7&,1,51,41,32,61,12,22,Abstract_Concrete_6tasks_simseq_2seq_listtask_switchAB_fMRI,707328,32154,51342,4,12,132,B4,weapon,5,7&,13961.656066,14081.670601,120.014535,0,0
3527,3#,1,52,42,31,61,11,21,Abstract_Concrete_6tasks_simseq_2seq_listtask_switchAB_fMRI,707328,32154,51342,4,13,133,A3,helmet,1,3#,13961.656066,14092.6692965,131.013230500001,0,0
5084,3#,1,52,42,32,61,12,22,Abstract_Concrete_6tasks_simseq_2seq_listtask_switchAB_fMRI,707328,32154,51342,4,14,134,B2,helmet,1,3#,13961.656066,14103.6677204,142.011654400001,0,0
2480,3#,1,52,41,31,61,12,22,Abstract_Concrete_6tasks_simseq_2seq_listtask_switchAB_fMRI,707328,32154,51342,4,15,135,A3,helmet,1,3#,13961.656066,14116.6689955,155.012929500001,0,0
2604,9(,1,52,42,32,62,11,22,Abstract_Concrete_6tasks_simseq_2seq_listtask_switchAB_fMRI,707328,32154,51342,4,16,136,B3,glasses,3,9(,13961.656066,14126.6679178,165.0118518,0,0
2364,4$,1,51,41,31,61,11,22,Abstract_Concrete_6tasks_simseq_2seq_listtask_switchAB_fMRI,707328,32154,51342,4,17,137,A4,tools,6,4$,13961.656066,14136.6677594,175.0116934,0,0
2801,7&,1,52,41,32,62,11,22,Abstract_Concrete_6tasks_simseq_2seq_listtask_switchAB_fMRI,707328,32154,51342,4,18,138,B4,weapon,5,7&,13961.656066,14146.6682238,185.0121578,0,0
2198,3#,1,51,41,31,61,11,21,Abstract_Concrete_6tasks_simseq_2seq_listtask_switchAB_fMRI,707328,32154,51342,4,19,139,A3,helmet,1,3#,13961.656066,14156.6676819,195.011615900001,0,0
2153,2@,1,51,42,32,61,11,21,Abstract_Concrete_6tasks_simseq_2seq_listtask_switchAB_fMRI,707328,32154,51342,4,20,140,B5,vest,2,2@,13961.656066,14166.6679457,205.0118797,0,0
1712,9(,1,51,41,32,62,11,22,Abstract_Concrete_6tasks_simseq_2seq_listtask_switchAB_fMRI,707328,32154,51342,4,21,141,A1,glasses,3,9(,13961.656066,14176.6700287,215.013962700001,0,0
1931,7&,1,52,41,32,61,11,21,Abstract_Concrete_6tasks_simseq_2seq_listtask_switchAB_fMRI,707328,32154,51342,4,22,142,B4,weapon,5,7&,13961.656066,14185.6684525,224.012386500001,0,0
2671,2@,1,52,41,32,62,12,22,Abstract_Concrete_6tasks_simseq_2seq_listtask_switchAB_fMRI,707328,32154,51342,4,23,143,A2,vest,2,2@,13961.656066,14194.6666113,233.0105453,0,0
2528,4$,1,51,42,32,62,12,21,Abstract_Concrete_6tasks_simseq_2seq_listtask_switchAB_fMRI,707328,32154,51342,4,24,144,B1,tools,6,4$,13961.656066,14204.6673646,243.0112986,0,0
2627,2@,1,52,41,32,61,11,22,Abstract_Concrete_6tasks_simseq_2seq_listtask_switchAB_fMRI,707328,32154,51342,4,25,145,A2,vest,2,2@,13961.656066,14214.6677669,253.011700900001,0,0
2341,4$,1,52,42,31,61,12,21,Abstract_Concrete_6tasks_simseq_2seq_listtask_switchAB_fMRI,707328,32154,51342,4,26,146,B1,tools,6,4$,13961.656066,14224.6698995,263.013833500001,0,0
2534,4$,1,52,41,32,61,12,21,Abstract_Concrete_6tasks_simseq_2seq_listtask_switchAB_fMRI,707328,32154,51342,4,27,147,A4,tools,6,4$,13961.656066,14234.6692993,273.0132333,0,0
1968,2@,1,52,42,31,61,11,22,Abstract_Concrete_6tasks_simseq_2seq_listtask_switchAB_fMRI,707328,32154,51342,4,28,148,B5,vest,2,2@,13961.656066,14244.6676437,283.011577700001,0,0
2073,2@,1,51,41,31,61,12,22,Abstract_Concrete_6tasks_simseq_2seq_listtask_switchAB_fMRI,707328,32154,51342,4,29,149,A2,vest,2,2@,13961.656066,14253.6685564,292.0124904,0,0
3091,9(,1,52,42,31,62,12,21,Abstract_Concrete_6tasks_simseq_2seq_listtask_switchAB_fMRI,707328,32154,51342,4,30,150,B3,glasses,3,9(,13961.656066,14263.6677632,302.0116972,0,0
2265,2@,1,51,42,32,61,12,22,Abstract_Concrete_6tasks_simseq_2seq_listtask_switchAB_fMRI,707328,32154,51342,4,31,151,A2,vest,2,2@,13961.656066,14274.6674288,313.0113628,0,0
3242,3#,1,52,41,32,62,12,21,Abstract_Concrete_6tasks_simseq_2seq_listtask_switchAB_fMRI,707328,32154,51342,4,32,152,B2,helmet,1,3#,13961.656066,14284.6676144,323.0115484,0,0
3081,7&,1,52,42,32,62,11,21,Abstract_Concrete_6tasks_simseq_2seq_listtask_switchAB_fMRI,707328,32154,51342,4,33,153,A5,weapon,5,7&,13961.656066,14295.667527,334.011461,0,0
1826,3#,1,51,41,32,61,11,21,Abstract_Concrete_6tasks_simseq_2seq_listtask_switchAB_fMRI,707328,32154,51342,4,34,154,B2,helmet,1,3#,13961.656066,14306.6683249,345.0122589,0,0
1497,9(,1,51,42,31,62,11,22,Abstract_Concrete_6tasks_simseq_2seq_listtask_switchAB_fMRI,707328,32154,51342,4,35,155,A1,glasses,3,9(,13961.656066,14315.6687629,354.012696900001,0,0
4070,3#,1,51,42,32,61,11,21,Abstract_Concrete_6tasks_simseq_2seq_listtask_switchAB_fMRI,707328,32154,51342,4,36,156,B2,helmet,1,3#,13961.656066,14324.667744,363.011678000001,0,0
2167,7&,1,51,42,31,62,12,22,Abstract_Concrete_6tasks_simseq_2seq_listtask_switchAB_fMRI,707328,32154,51342,4,37,157,A5,weapon,5,7&,13961.656066,14336.669559,375.013493,0,0
1468,2@,1,51,42,31,61,11,21,Abstract_Concrete_6tasks_simseq_2seq_listtask_switchAB_fMRI,707328,32154,51342,4,38,158,B5,vest,2,2@,13961.656066,14346.6688215,385.0127555,0,0
2141,4$,1,51,42,32,62,11,21,Abstract_Concrete_6tasks_simseq_2seq_listtask_switchAB_fMRI,707328,32154,51342,4,39,159,A4,tools,6,4$,13961.656066,14355.6674339,394.011367900001,0,0
2691,4$,1,52,42,32,61,12,22,Abstract_Concrete_6tasks_simseq_2seq_listtask_switchAB_fMRI,707328,32154,51342,4,40,160,B1,tools,6,4$,13961.656066,14365.666981,404.010915000001,0,0
1749,2@,1,51,42,31,62,12,22,Abstract_Concrete_6tasks_simseq_2seq_listtask_switchAB_fMRI,707328,32154,51342,5,1,161,B5,vest,2,2@,14413.8719951,14421.8834894,8.01149429999896,0,0
2289,3#,1,52,41,31,62,11,21,Abstract_Concrete_6tasks_simseq_2seq_listtask_switchAB_fMRI,707328,32154,51342,5,2,162,A3,helmet,1,3#,14413.8719951,14430.8810349,17.0090397999993,0,0
1716,7&,1,52,41,31,62,11,21,Abstract_Concrete_6tasks_simseq_2seq_listtask_switchAB_fMRI,707328,32154,51342,5,3,163,B4,weapon,5,7&,14413.8719951,14440.8835592,27.0115640999993,0,0
1827,4$,1,51,42,31,61,12,21,Abstract_Concrete_6tasks_simseq_2seq_listtask_switchAB_fMRI,707328,32154,51342,5,4,164,A4,tools,6,4$,14413.8719951,14449.8839432,36.0119481000002,0,0
1869,7&,1,52,41,32,62,11,22,Abstract_Concrete_6tasks_simseq_2seq_listtask_switchAB_fMRI,707328,32154,51342,5,5,165,B4,weapon,5,7&,14413.8719951,14458.8865809,45.0145857999996,0,0
1491,9(,1,52,42,31,61,12,22,Abstract_Concrete_6tasks_simseq_2seq_listtask_switchAB_fMRI,707328,32154,51342,5,6,166,A1,glasses,3,9(,14413.8719951,14467.883722,54.0117269000002,0,0
2010,4$,1,51,42,32,61,11,21,Abstract_Concrete_6tasks_simseq_2seq_listtask_switchAB_fMRI,707328,32154,51342,5,7,167,B1,tools,6,4$,14413.8719951,14476.8831423,63.011147199999,0,0
2204,4$,1,52,42,31,61,12,22,Abstract_Concrete_6tasks_simseq_2seq_listtask_switchAB_fMRI,707328,32154,51342,5,8,168,A4,tools,6,4$,14413.8719951,14486.8836301,73.0116349999989,0,0
2319,3#,1,52,41,32,62,12,21,Abstract_Concrete_6tasks_simseq_2seq_listtask_switchAB_fMRI,707328,32154,51342,5,9,169,B2,helmet,1,3#,14413.8719951,14496.8836644,83.0116693,0,0
2828,2@,1,51,42,31,61,11,21,Abstract_Concrete_6tasks_simseq_2seq_listtask_switchAB_fMRI,707328,32154,51342,5,10,170,A2,vest,2,2@,14413.8719951,14506.8861357,93.0141406000002,0,0
2452,9(,1,52,41,32,61,12,21,Abstract_Concrete_6tasks_simseq_2seq_listtask_switchAB_fMRI,707328,32154,51342,5,11,171,B3,glasses,3,9(,14413.8719951,14516.8834094,103.011414299999,0,0
2545,3#,1,52,42,32,62,11,22,Abstract_Concrete_6tasks_simseq_2seq_listtask_switchAB_fMRI,707328,32154,51342,5,12,172,A3,helmet,1,3#,14413.8719951,14526.8823804,113.0103853,0,0
3385,2@,1,51,42,31,61,11,22,Abstract_Concrete_6tasks_simseq_2seq_listtask_switchAB_fMRI,707328,32154,51342,5,13,173,B5,vest,2,2@,14413.8719951,14536.8840692,123.012074099999,0,0
1902,9(,1,52,42,31,62,12,22,Abstract_Concrete_6tasks_simseq_2seq_listtask_switchAB_fMRI,707328,32154,51342,5,14,174,A1,glasses,3,9(,14413.8719951,14547.8859189,134.013923799999,0,0
2813,7&,1,51,41,32,61,12,22,Abstract_Concrete_6tasks_simseq_2seq_listtask_switchAB_fMRI,707328,32154,51342,5,15,175,B4,weapon,5,7&,14413.8719951,14556.8851052,143.013110100001,0,0
3014,3#,1,52,42,32,61,12,22,Abstract_Concrete_6tasks_simseq_2seq_listtask_switchAB_fMRI,707328,32154,51342,5,16,176,A3,helmet,1,3#,14413.8719951,14566.8825753,153.0105802,0,0
3713,9(,1,51,41,31,61,12,22,Abstract_Concrete_6tasks_simseq_2seq_listtask_switchAB_fMRI,707328,32154,51342,5,17,177,B3,glasses,3,9(,14413.8719951,14577.8856916,164.0136965,0,0
2964,4$,1,51,42,32,61,11,21,Abstract_Concrete_6tasks_simseq_2seq_listtask_switchAB_fMRI,707328,32154,51342,5,18,178,A4,tools,6,4$,14413.8719951,14588.8844367,175.0124416,0,0
5846,3#,1,51,42,31,61,11,22,Abstract_Concrete_6tasks_simseq_2seq_listtask_switchAB_fMRI,707328,32154,51342,5,19,179,B2,helmet,1,3#,14413.8719951,14598.8844377,185.0124426,0,0
1689,4$,1,52,41,32,61,12,22,Abstract_Concrete_6tasks_simseq_2seq_listtask_switchAB_fMRI,707328,32154,51342,5,20,180,A4,tools,6,4$,14413.8719951,14611.8833571,198.011361999999,0,0
1937,4$,1,52,42,31,61,12,22,Abstract_Concrete_6tasks_simseq_2seq_listtask_switchAB_fMRI,707328,32154,51342,5,21,181,B1,tools,6,4$,14413.8719951,14620.8835982,207.0116031,0,0
2588,2@,1,52,41,32,62,12,21,Abstract_Concrete_6tasks_simseq_2seq_listtask_switchAB_fMRI,707328,32154,51342,5,22,182,A2,vest,2,2@,14413.8719951,14629.8816709,216.0096758,0,0
2367,4$,1,51,41,31,61,11,21,Abstract_Concrete_6tasks_simseq_2seq_listtask_switchAB_fMRI,707328,32154,51342,5,23,183,B1,tools,6,4$,14413.8719951,14639.8825219,226.010526799999,0,0
2175,3#,1,51,41,32,61,12,22,Abstract_Concrete_6tasks_simseq_2seq_listtask_switchAB_fMRI,707328,32154,51342,5,24,184,A3,helmet,1,3#,14413.8719951,14649.8854571,236.013461999999,0,0
2365,3#,1,52,42,31,62,12,21,Abstract_Concrete_6tasks_simseq_2seq_listtask_switchAB_fMRI,707328,32154,51342,5,25,185,B2,helmet,1,3#,14413.8719951,14659.884201,246.0122059,0,0
3079,9(,1,52,42,32,61,11,22,Abstract_Concrete_6tasks_simseq_2seq_listtask_switchAB_fMRI,707328,32154,51342,5,26,186,A1,glasses,3,9(,14413.8719951,14669.8834148,256.0114197,0,0
4738,9(,1,52,41,32,61,11,21,Abstract_Concrete_6tasks_simseq_2seq_listtask_switchAB_fMRI,707328,32154,51342,5,27,187,B3,glasses,3,9(,14413.8719951,14680.8838919,267.011896800001,0,0
3960,2@,1,51,42,31,62,12,22,Abstract_Concrete_6tasks_simseq_2seq_listtask_switchAB_fMRI,707328,32154,51342,5,28,188,A2,vest,2,2@,14413.8719951,14692.8856402,279.0136451,0,0
4197,7&,1,52,42,32,62,12,22,Abstract_Concrete_6tasks_simseq_2seq_listtask_switchAB_fMRI,707328,32154,51342,5,29,189,B4,weapon,5,7&,14413.8719951,14703.8829758,290.010980699999,0,0
2299,7&,1,52,42,31,61,12,21,Abstract_Concrete_6tasks_simseq_2seq_listtask_switchAB_fMRI,707328,32154,51342,5,30,190,A5,weapon,5,7&,14413.8719951,14715.8850285,302.0130334,0,0
2555,2@,1,51,41,32,61,12,22,Abstract_Concrete_6tasks_simseq_2seq_listtask_switchAB_fMRI,707328,32154,51342,5,31,191,B5,vest,2,2@,14413.8719951,14725.8837466,312.0117515,0,0
1815,7&,1,51,42,31,61,11,21,Abstract_Concrete_6tasks_simseq_2seq_listtask_switchAB_fMRI,707328,32154,51342,5,32,192,A5,weapon,5,7&,14413.8719951,14735.883467,322.011471899999,0,0
2817,3#,1,52,41,32,61,12,21,Abstract_Concrete_6tasks_simseq_2seq_listtask_switchAB_fMRI,707328,32154,51342,5,33,193,B2,helmet,1,3#,14413.8719951,14744.8835861,331.011591,0,0
1522,7&,1,51,41,32,61,11,22,Abstract_Concrete_6tasks_simseq_2seq_listtask_switchAB_fMRI,707328,32154,51342,5,34,194,A5,weapon,5,7&,14413.8719951,14754.8844068,341.0124117,0,0
2186,9(,1,52,41,31,61,12,22,Abstract_Concrete_6tasks_simseq_2seq_listtask_switchAB_fMRI,707328,32154,51342,5,35,195,B3,glasses,3,9(,14413.8719951,14763.8825317,350.010536599999,0,0
1224,7&,1,52,41,31,62,11,22,Abstract_Concrete_6tasks_simseq_2seq_listtask_switchAB_fMRI,707328,32154,51342,5,36,196,A5,weapon,5,7&,14413.8719951,14773.8837002,360.0117051,0,0
1488,2@,1,51,42,31,61,11,21,Abstract_Concrete_6tasks_simseq_2seq_listtask_switchAB_fMRI,707328,32154,51342,5,37,197,B5,vest,2,2@,14413.8719951,14782.882914,369.0109189,0,0
1823,9(,1,52,41,31,61,12,22,Abstract_Concrete_6tasks_simseq_2seq_listtask_switchAB_fMRI,707328,32154,51342,5,38,198,A1,glasses,3,9(,14413.8719951,14791.883756,378.011760899999,0,0
1517,4$,1,51,42,32,61,11,21,Abstract_Concrete_6tasks_simseq_2seq_listtask_switchAB_fMRI,707328,32154,51342,5,39,199,B1,tools,6,4$,14413.8719951,14800.8845357,387.012540599999,0,0
2131,2@,1,51,42,32,61,12,21,Abstract_Concrete_6tasks_simseq_2seq_listtask_switchAB_fMRI,707328,32154,51342,5,40,200,A2,vest,2,2@,14413.8719951,14809.8847955,396.0128004,0,0
1864,3#,1,51,42,32,61,12,22,Abstract_Concrete_6tasks_simseq_2seq_listtask_switchAB_fMRI,707328,32154,51342,6,1,201,A3,helmet,1,3#,14857.1419969,14865.1515365,8.0095395999997,0,0
2625,7&,1,52,42,31,61,12,21,Abstract_Concrete_6tasks_simseq_2seq_listtask_switchAB_fMRI,707328,32154,51342,6,2,202,B4,weapon,5,7&,14857.1419969,14874.1516759,17.0096790000007,0,0
1410,9(,1,51,41,32,61,12,22,Abstract_Concrete_6tasks_simseq_2seq_listtask_switchAB_fMRI,707328,32154,51342,6,3,203,A1,glasses,3,9(,14857.1419969,14884.1545812,27.0125843000005,0,0
1887,4$,1,51,41,31,61,12,21,Abstract_Concrete_6tasks_simseq_2seq_listtask_switchAB_fMRI,707328,32154,51342,6,4,204,B1,tools,6,4$,14857.1419969,14893.1555694,36.0135725,0,0
1479,7&,1,51,41,31,61,12,21,Abstract_Concrete_6tasks_simseq_2seq_listtask_switchAB_fMRI,707328,32154,51342,6,5,205,A5,weapon,5,7&,14857.1419969,14902.1530809,45.0110839999998,0,0
2868,9(,1,51,42,31,61,11,22,Abstract_Concrete_6tasks_simseq_2seq_listtask_switchAB_fMRI,707328,32154,51342,6,6,206,B3,glasses,3,9(,14857.1419969,14911.1546341,54.0126371999995,0,0
1184,7&,1,51,42,32,62,11,22,Abstract_Concrete_6tasks_simseq_2seq_listtask_switchAB_fMRI,707328,32154,51342,6,7,207,A5,weapon,5,7&,14857.1419969,14921.1532964,64.0112995,0,0
3797,3#,1,52,41,32,62,12,21,Abstract_Concrete_6tasks_simseq_2seq_listtask_switchAB_fMRI,707328,32154,51342,6,8,208,B2,helmet,1,3#,14857.1419969,14930.1532452,73.0112482999994,0,0
2537,4$,1,52,42,31,61,12,22,Abstract_Concrete_6tasks_simseq_2seq_listtask_switchAB_fMRI,707328,32154,51342,6,9,209,A4,tools,6,4$,14857.1419969,14941.1532251,84.0112282000009,0,0
2794,7&,1,52,41,31,62,11,21,Abstract_Concrete_6tasks_simseq_2seq_listtask_switchAB_fMRI,707328,32154,51342,6,10,210,B4,weapon,5,7&,14857.1419969,14951.1555061,94.0135092,0,0
2129,2@,1,52,42,32,61,11,22,Abstract_Concrete_6tasks_simseq_2seq_listtask_switchAB_fMRI,707328,32154,51342,6,11,211,A2,vest,2,2@,14857.1419969,14961.1527929,104.010796,0,0
3131,4$,1,52,42,32,62,11,21,Abstract_Concrete_6tasks_simseq_2seq_listtask_switchAB_fMRI,707328,32154,51342,6,12,212,B1,tools,6,4$,14857.1419969,14971.1539992,114.0120023,0,0
2633,9(,1,52,42,32,62,11,22,Abstract_Concrete_6tasks_simseq_2seq_listtask_switchAB_fMRI,707328,32154,51342,6,13,213,A1,glasses,3,9(,14857.1419969,14982.1544258,125.0124289,0,0
3213,7&,1,51,42,31,62,12,22,Abstract_Concrete_6tasks_simseq_2seq_listtask_switchAB_fMRI,707328,32154,51342,6,14,214,B4,weapon,5,7&,14857.1419969,14992.1527851,135.010788199999,0,0
1729,2@,1,52,42,31,61,11,21,Abstract_Concrete_6tasks_simseq_2seq_listtask_switchAB_fMRI,707328,32154,51342,6,15,215,A2,vest,2,2@,14857.1419969,15003.1541185,146.012121600001,0,0
2598,2@,1,51,42,32,62,11,22,Abstract_Concrete_6tasks_simseq_2seq_listtask_switchAB_fMRI,707328,32154,51342,6,16,216,B5,vest,2,2@,14857.1419969,15012.1550886,155.013091700001,0,0
2828,3#,1,51,42,32,61,12,22,Abstract_Concrete_6tasks_simseq_2seq_listtask_switchAB_fMRI,707328,32154,51342,6,17,217,A3,helmet,1,3#,14857.1419969,15022.1535741,165.011577200001,0,0
3567,3#,1,51,41,32,61,11,22,Abstract_Concrete_6tasks_simseq_2seq_listtask_switchAB_fMRI,707328,32154,51342,6,18,218,B2,helmet,1,3#,14857.1419969,15032.1534443,175.0114474,0,0
2392,7&,1,52,42,32,61,12,21,Abstract_Concrete_6tasks_simseq_2seq_listtask_switchAB_fMRI,707328,32154,51342,6,19,219,A5,weapon,5,7&,14857.1419969,15043.151604,186.009607100001,0,0
1628,2@,1,52,42,32,62,11,22,Abstract_Concrete_6tasks_simseq_2seq_listtask_switchAB_fMRI,707328,32154,51342,6,20,220,B5,vest,2,2@,14857.1419969,15053.1537406,196.011743700001,0,0
3586,4$,1,51,41,31,62,12,21,Abstract_Concrete_6tasks_simseq_2seq_listtask_switchAB_fMRI,707328,32154,51342,6,21,221,A4,tools,6,4$,14857.1419969,15062.1535232,205.011526300001,0,0
3099,4$,1,52,42,31,62,12,21,Abstract_Concrete_6tasks_simseq_2seq_listtask_switchAB_fMRI,707328,32154,51342,6,22,222,B1,tools,6,4$,14857.1419969,15073.1526113,216.0106144,0,0
1649,7&,1,51,41,32,62,12,22,Abstract_Concrete_6tasks_simseq_2seq_listtask_switchAB_fMRI,707328,32154,51342,6,23,223,A5,weapon,5,7&,14857.1419969,15084.1542236,227.012226700001,0,0
3134,9(,1,52,41,31,62,12,21,Abstract_Concrete_6tasks_simseq_2seq_listtask_switchAB_fMRI,707328,32154,51342,6,24,224,B3,glasses,3,9(,14857.1419969,15093.1527448,236.0107479,0,0
1912,3#,1,51,41,31,61,12,21,Abstract_Concrete_6tasks_simseq_2seq_listtask_switchAB_fMRI,707328,32154,51342,6,25,225,A3,helmet,1,3#,14857.1419969,15104.153275,247.011278100001,0,0
3345,3#,1,52,41,32,61,12,21,Abstract_Concrete_6tasks_simseq_2seq_listtask_switchAB_fMRI,707328,32154,51342,6,26,226,B2,helmet,1,3#,14857.1419969,15113.1539228,256.0119259,0,0
2457,2@,1,52,42,31,61,12,22,Abstract_Concrete_6tasks_simseq_2seq_listtask_switchAB_fMRI,707328,32154,51342,6,27,227,A2,vest,2,2@,14857.1419969,15124.1550291,267.0130322,0,0
2731,2@,1,51,41,31,62,12,22,Abstract_Concrete_6tasks_simseq_2seq_listtask_switchAB_fMRI,707328,32154,51342,6,28,228,B5,vest,2,2@,14857.1419969,15134.1534648,277.0114679,0,0
2772,3#,1,51,41,31,61,11,21,Abstract_Concrete_6tasks_simseq_2seq_listtask_switchAB_fMRI,707328,32154,51342,6,29,229,A3,helmet,1,3#,14857.1419969,15144.1532592,287.0112623,0,0
1644,7&,1,51,42,32,62,12,22,Abstract_Concrete_6tasks_simseq_2seq_listtask_switchAB_fMRI,707328,32154,51342,6,30,230,B4,weapon,5,7&,14857.1419969,15154.1527431,297.0107462,0,0
3676,4$,1,51,42,31,62,12,21,Abstract_Concrete_6tasks_simseq_2seq_listtask_switchAB_fMRI,707328,32154,51342,6,31,231,A4,tools,6,4$,14857.1419969,15163.1526161,306.0106192,0,0
2335,9(,1,51,41,31,61,11,21,Abstract_Concrete_6tasks_simseq_2seq_listtask_switchAB_fMRI,707328,32154,51342,6,32,232,B3,glasses,3,9(,14857.1419969,15174.1524422,317.0104453,0,0
2393,2@,1,52,42,32,61,11,22,Abstract_Concrete_6tasks_simseq_2seq_listtask_switchAB_fMRI,707328,32154,51342,6,33,233,A2,vest,2,2@,14857.1419969,15184.1536893,327.011692399999,0,0
4586,9(,1,51,41,31,62,11,22,Abstract_Concrete_6tasks_simseq_2seq_listtask_switchAB_fMRI,707328,32154,51342,6,34,234,B3,glasses,3,9(,14857.1419969,15194.1535062,337.0115093,0,0
1292,9(,1,52,41,32,62,11,22,Abstract_Concrete_6tasks_simseq_2seq_listtask_switchAB_fMRI,707328,32154,51342,6,35,235,A1,glasses,3,9(,14857.1419969,15206.1525715,349.010574600001,0,0
8325,4$,1,51,42,31,61,12,22,Abstract_Concrete_6tasks_simseq_2seq_listtask_switchAB_fMRI,707328,32154,51342,6,36,236,B1,tools,6,4$,14857.1419969,15215.1550195,358.0130226,0,0
1993,9(,1,51,42,32,62,12,21,Abstract_Concrete_6tasks_simseq_2seq_listtask_switchAB_fMRI,707328,32154,51342,6,37,237,A1,glasses,3,9(,14857.1419969,15231.1548862,374.0128893,0,0
2144,2@,1,51,42,32,61,12,21,Abstract_Concrete_6tasks_simseq_2seq_listtask_switchAB_fMRI,707328,32154,51342,6,38,238,B5,vest,2,2@,14857.1419969,15241.1555169,384.01352,0,0
3643,4$,1,51,42,32,61,12,21,Abstract_Concrete_6tasks_simseq_2seq_listtask_switchAB_fMRI,707328,32154,51342,6,39,239,A4,tools,6,4$,14857.1419969,15251.1529121,394.0109152,0,0
2159,3#,1,51,41,32,61,12,22,Abstract_Concrete_6tasks_simseq_2seq_listtask_switchAB_fMRI,707328,32154,51342,6,40,240,B2,helmet,1,3#,14857.1419969,15262.1548218,405.012824900001,0,0
