rt1,resp1,correct1,features_1,features_2,features_3,features_4,features_5,features_6,ExpName,subNo,seqA,seqB,block,trial,trialnum,cuetype,task,subtaskcode,corr_resp1,onsetTime_s,onsetTime_cue,onset_cue,onsetTime_cue_fb,onset_cue_fb
4591,3#,1,52,31,22,11,61,42,Abstract_Concrete_6tasks_simseq_2seq_listtask_switchAB_fMRI,720490,54321,23514,1,1,1,B3,tools,6,3#,694999.0625864,695007.076641954,8.01405555440579,0,0
1651,8*,1,52,32,22,12,62,41,Abstract_Concrete_6tasks_simseq_2seq_listtask_switchAB_fMRI,720490,54321,23514,1,2,2,A3,glasses,3,8*,694999.0625864,695019.0772293,20.0146429000888,0,0
3075,4$,1,51,32,21,12,61,42,Abstract_Concrete_6tasks_simseq_2seq_listtask_switchAB_fMRI,720490,54321,23514,1,3,3,B4,helmet,1,4$,694999.0625864,695028.0744955,29.0119090999942,0,0
2955,3#,1,52,32,22,12,62,41,Abstract_Concrete_6tasks_simseq_2seq_listtask_switchAB_fMRI,720490,54321,23514,1,4,4,A1,tools,6,3#,694999.0625864,695039.0773204,40.014734000084,0,0
5946,7&,1,52,32,21,11,62,42,Abstract_Concrete_6tasks_simseq_2seq_listtask_switchAB_fMRI,720490,54321,23514,1,5,5,B5,weapon,5,7&,694999.0625864,695049.0758323,50.0132459000451,0,0
2981,4$,1,51,31,22,12,62,42,Abstract_Concrete_6tasks_simseq_2seq_listtask_switchAB_fMRI,720490,54321,23514,1,6,6,A5,helmet,1,4$,694999.0625864,695062.0792692,63.016682800022,0,0
3312,4$,1,52,32,22,11,62,42,Abstract_Concrete_6tasks_simseq_2seq_listtask_switchAB_fMRI,720490,54321,23514,1,7,7,B4,helmet,1,4$,694999.0625864,695072.0777058,73.0151193999918,0,0
1591,7&,1,51,32,22,11,61,41,Abstract_Concrete_6tasks_simseq_2seq_listtask_switchAB_fMRI,720490,54321,23514,1,8,8,A2,weapon,5,7&,694999.0625864,695083.0777104,84.0151240000268,0,0
1875,7&,1,52,32,21,12,62,42,Abstract_Concrete_6tasks_simseq_2seq_listtask_switchAB_fMRI,720490,54321,23514,1,9,9,B5,weapon,5,7&,694999.0625864,695092.0739434,93.0113570000976,0,0
2237,8*,1,51,31,22,12,62,41,Abstract_Concrete_6tasks_simseq_2seq_listtask_switchAB_fMRI,720490,54321,23514,1,10,10,A3,glasses,3,8*,694999.0625864,695101.0855369,102.022950500017,0,0
2408,8*,1,51,31,22,11,61,42,Abstract_Concrete_6tasks_simseq_2seq_listtask_switchAB_fMRI,720490,54321,23514,1,11,11,B2,glasses,3,8*,694999.0625864,695111.0822888,112.019702400081,0,0
2654,9(,1,51,32,21,12,62,42,Abstract_Concrete_6tasks_simseq_2seq_listtask_switchAB_fMRI,720490,54321,23514,1,12,12,A4,vest,2,9(,694999.0625864,695121.0860421,122.023455700022,0,0
1240,8*,1,52,32,22,12,61,42,Abstract_Concrete_6tasks_simseq_2seq_listtask_switchAB_fMRI,720490,54321,23514,1,13,13,B2,glasses,3,8*,694999.0625864,695131.0763078,132.013721400057,0,0
1218,7&,1,51,32,22,12,62,41,Abstract_Concrete_6tasks_simseq_2seq_listtask_switchAB_fMRI,720490,54321,23514,1,14,14,A2,weapon,5,7&,694999.0625864,695140.0822592,141.019672800088,0,0
2250,3#,1,51,32,21,12,61,41,Abstract_Concrete_6tasks_simseq_2seq_listtask_switchAB_fMRI,720490,54321,23514,1,15,15,B3,tools,6,3#,694999.0625864,695149.0836531,150.021066699992,0,0
1787,8*,1,52,31,22,12,62,41,Abstract_Concrete_6tasks_simseq_2seq_listtask_switchAB_fMRI,720490,54321,23514,1,16,16,A3,glasses,3,8*,694999.0625864,695159.086185,160.023598600063,0,0
1175,9(,1,51,32,21,11,62,42,Abstract_Concrete_6tasks_simseq_2seq_listtask_switchAB_fMRI,720490,54321,23514,1,17,17,B1,vest,2,9(,694999.0625864,695168.074493,169.011906600092,0,0
3093,4$,1,51,32,22,12,62,42,Abstract_Concrete_6tasks_simseq_2seq_listtask_switchAB_fMRI,720490,54321,23514,1,18,18,A5,helmet,1,4$,694999.0625864,695177.0854201,178.022833700059,0,0
2268,7&,0,52,32,21,12,61,41,Abstract_Concrete_6tasks_simseq_2seq_listtask_switchAB_fMRI,720490,54321,23514,1,19,19,B4,helmet,1,4$,694999.0625864,695188.0858743,189.023287900025,695190.3706072,191.308020800003
3743,9(,1,51,31,21,12,62,41,Abstract_Concrete_6tasks_simseq_2seq_listtask_switchAB_fMRI,720490,54321,23514,1,20,20,A4,vest,2,9(,694999.0625864,695198.0767192,199.014132800046,0,0
1872,9(,1,51,31,21,11,61,42,Abstract_Concrete_6tasks_simseq_2seq_listtask_switchAB_fMRI,720490,54321,23514,1,21,21,B1,vest,2,9(,694999.0625864,695209.0843805,210.021794100059,0,0
1803,8*,1,52,32,22,11,62,41,Abstract_Concrete_6tasks_simseq_2seq_listtask_switchAB_fMRI,720490,54321,23514,1,22,22,A3,glasses,3,8*,694999.0625864,695218.0874701,219.024883700069,0,0
1771,8*,0,52,31,22,12,61,41,Abstract_Concrete_6tasks_simseq_2seq_listtask_switchAB_fMRI,720490,54321,23514,1,23,23,B3,tools,6,3#,694999.0625864,695227.0833581,228.020771700074,695228.8681155,229.805529100006
2326,4$,1,52,32,21,11,61,42,Abstract_Concrete_6tasks_simseq_2seq_listtask_switchAB_fMRI,720490,54321,23514,1,24,24,A5,helmet,1,4$,694999.0625864,695236.0871001,237.024513700046,0,0
3990,7&,1,52,32,21,11,61,41,Abstract_Concrete_6tasks_simseq_2seq_listtask_switchAB_fMRI,720490,54321,23514,1,25,25,B5,weapon,5,7&,694999.0625864,695246.0847442,247.022157800035,0,0
2532,9(,1,52,31,21,12,62,41,Abstract_Concrete_6tasks_simseq_2seq_listtask_switchAB_fMRI,720490,54321,23514,1,26,26,A4,vest,2,9(,694999.0625864,695258.0851219,259.0225355,0,0
1252,8*,1,52,32,22,12,61,41,Abstract_Concrete_6tasks_simseq_2seq_listtask_switchAB_fMRI,720490,54321,23514,1,27,27,B2,glasses,3,8*,694999.0625864,695268.084742,269.022155600018,0,0
2206,3#,1,51,32,22,12,61,41,Abstract_Concrete_6tasks_simseq_2seq_listtask_switchAB_fMRI,720490,54321,23514,1,28,28,A1,tools,6,3#,694999.0625864,695277.0872844,278.024698000052,0,0
1471,8*,1,52,32,21,11,61,42,Abstract_Concrete_6tasks_simseq_2seq_listtask_switchAB_fMRI,720490,54321,23514,1,29,29,B2,glasses,3,8*,694999.0625864,695287.090644,288.028057600022,0,0
1269,3#,1,51,32,22,12,61,42,Abstract_Concrete_6tasks_simseq_2seq_listtask_switchAB_fMRI,720490,54321,23514,1,30,30,A1,tools,6,3#,694999.0625864,695296.0784527,297.015866300091,0,0
1336,9(,1,52,31,21,11,61,41,Abstract_Concrete_6tasks_simseq_2seq_listtask_switchAB_fMRI,720490,54321,23514,1,31,31,B1,vest,2,9(,694999.0625864,695305.0832364,306.020650000079,0,0
1736,7&,1,51,32,21,11,61,42,Abstract_Concrete_6tasks_simseq_2seq_listtask_switchAB_fMRI,720490,54321,23514,1,32,32,A2,weapon,5,7&,694999.0625864,695314.0765056,315.01391920005,0,0
2476,4$,1,52,32,22,11,61,41,Abstract_Concrete_6tasks_simseq_2seq_listtask_switchAB_fMRI,720490,54321,23514,1,33,33,B4,helmet,1,4$,694999.0625864,695323.0830655,324.020479100058,0,0
1493,3#,1,52,31,22,11,61,42,Abstract_Concrete_6tasks_simseq_2seq_listtask_switchAB_fMRI,720490,54321,23514,1,34,34,A1,tools,6,3#,694999.0625864,695333.0759799,334.013393500005,0,0
2778,3#,1,51,31,21,11,62,41,Abstract_Concrete_6tasks_simseq_2seq_listtask_switchAB_fMRI,720490,54321,23514,1,35,35,B3,tools,6,3#,694999.0625864,695342.0765046,343.013918200042,0,0
3083,4$,1,51,32,22,11,61,42,Abstract_Concrete_6tasks_simseq_2seq_listtask_switchAB_fMRI,720490,54321,23514,1,36,36,A5,helmet,1,4$,694999.0625864,695352.0755589,353.012972500059,0,0
3248,7&,1,51,32,21,12,62,41,Abstract_Concrete_6tasks_simseq_2seq_listtask_switchAB_fMRI,720490,54321,23514,1,37,37,B5,weapon,5,7&,694999.0625864,695363.0752017,364.012615300016,0,0
1977,9(,1,52,31,21,12,62,41,Abstract_Concrete_6tasks_simseq_2seq_listtask_switchAB_fMRI,720490,54321,23514,1,38,38,A4,vest,2,9(,694999.0625864,695374.0757262,375.013139800052,0,0
2303,9(,1,51,31,22,12,61,41,Abstract_Concrete_6tasks_simseq_2seq_listtask_switchAB_fMRI,720490,54321,23514,1,39,39,B1,vest,2,9(,694999.0625864,695383.087665,384.02507860004,0,0
1853,7&,1,52,31,21,12,62,41,Abstract_Concrete_6tasks_simseq_2seq_listtask_switchAB_fMRI,720490,54321,23514,1,40,40,A2,weapon,5,7&,694999.0625864,695393.0739202,394.011333800037,0,0
2616,8*,1,52,31,21,12,62,41,Abstract_Concrete_6tasks_simseq_2seq_listtask_switchAB_fMRI,720490,54321,23514,2,1,41,A3,glasses,3,8*,695443.8593583,695451.8693893,8.01003100001253,0,0
1434,9(,1,51,31,21,11,62,42,Abstract_Concrete_6tasks_simseq_2seq_listtask_switchAB_fMRI,720490,54321,23514,2,2,42,B1,vest,2,9(,695443.8593583,695461.8758061,18.0164477999788,0,0
2137,4$,1,51,32,21,12,61,41,Abstract_Concrete_6tasks_simseq_2seq_listtask_switchAB_fMRI,720490,54321,23514,2,3,43,A5,helmet,1,4$,695443.8593583,695470.878353,27.0189947000472,0,0
1764,9(,1,52,31,22,12,62,42,Abstract_Concrete_6tasks_simseq_2seq_listtask_switchAB_fMRI,720490,54321,23514,2,4,44,B1,vest,2,9(,695443.8593583,695480.8750281,37.0156697999919,0,0
2971,8*,1,51,32,22,11,61,41,Abstract_Concrete_6tasks_simseq_2seq_listtask_switchAB_fMRI,720490,54321,23514,2,5,45,A3,glasses,3,8*,695443.8593583,695489.8753733,46.0160150000593,0,0
3519,4$,1,52,31,21,11,62,41,Abstract_Concrete_6tasks_simseq_2seq_listtask_switchAB_fMRI,720490,54321,23514,2,6,46,B4,helmet,1,4$,695443.8593583,695499.8779159,56.0185575999785,0,0
2146,4$,1,52,32,22,11,61,42,Abstract_Concrete_6tasks_simseq_2seq_listtask_switchAB_fMRI,720490,54321,23514,2,7,47,A5,helmet,1,4$,695443.8593583,695510.8723853,67.0130270000082,0,0
1943,3#,1,52,31,21,11,61,41,Abstract_Concrete_6tasks_simseq_2seq_listtask_switchAB_fMRI,720490,54321,23514,2,8,48,B3,tools,6,3#,695443.8593583,695520.8781659,77.0188076000195,0,0
1492,7&,1,51,31,22,12,62,42,Abstract_Concrete_6tasks_simseq_2seq_listtask_switchAB_fMRI,720490,54321,23514,2,9,49,A2,weapon,5,7&,695443.8593583,695529.8706271,86.0112688000081,0,0
1858,9(,1,52,32,22,12,62,42,Abstract_Concrete_6tasks_simseq_2seq_listtask_switchAB_fMRI,720490,54321,23514,2,10,50,B1,vest,2,9(,695443.8593583,695538.8875013,95.0281429999741,0,0
1517,7&,1,52,32,21,12,62,41,Abstract_Concrete_6tasks_simseq_2seq_listtask_switchAB_fMRI,720490,54321,23514,2,11,51,A2,weapon,5,7&,695443.8593583,695547.8876248,104.028266499983,0,0
1715,7&,1,52,32,21,12,61,42,Abstract_Concrete_6tasks_simseq_2seq_listtask_switchAB_fMRI,720490,54321,23514,2,12,52,B5,weapon,5,7&,695443.8593583,695556.871157,113.011798699968,0,0
1385,3#,1,52,32,21,12,61,41,Abstract_Concrete_6tasks_simseq_2seq_listtask_switchAB_fMRI,720490,54321,23514,2,13,53,A1,tools,6,3#,695443.8593583,695565.8732684,122.01391009998,0,0
1492,8*,1,52,31,21,12,62,42,Abstract_Concrete_6tasks_simseq_2seq_listtask_switchAB_fMRI,720490,54321,23514,2,14,54,B2,glasses,3,8*,695443.8593583,695574.8805638,131.021205500001,0,0
1986,9(,1,52,31,22,11,61,41,Abstract_Concrete_6tasks_simseq_2seq_listtask_switchAB_fMRI,720490,54321,23514,2,15,55,A4,vest,2,9(,695443.8593583,695583.8769071,140.01754879998,0,0
1303,3#,1,51,31,21,11,62,42,Abstract_Concrete_6tasks_simseq_2seq_listtask_switchAB_fMRI,720490,54321,23514,2,16,56,B3,tools,6,3#,695443.8593583,695593.8948242,150.035465899971,0,0
2057,4$,0,51,31,21,11,62,41,Abstract_Concrete_6tasks_simseq_2seq_listtask_switchAB_fMRI,720490,54321,23514,2,17,57,A4,vest,2,9(,695443.8593583,695602.8786102,159.019251900027,695604.94993,161.090571700013
2162,3#,1,51,32,22,12,62,41,Abstract_Concrete_6tasks_simseq_2seq_listtask_switchAB_fMRI,720490,54321,23514,2,18,58,B3,tools,6,3#,695443.8593583,695612.8713833,169.012025000062,0,0
2253,7&,1,51,32,21,12,61,41,Abstract_Concrete_6tasks_simseq_2seq_listtask_switchAB_fMRI,720490,54321,23514,2,19,59,A2,weapon,5,7&,695443.8593583,695622.8784739,179.019115600036,0,0
5402,7&,1,51,32,22,12,62,42,Abstract_Concrete_6tasks_simseq_2seq_listtask_switchAB_fMRI,720490,54321,23514,2,20,60,B5,weapon,5,7&,695443.8593583,695632.88062,189.021261699963,0,0
1093,8*,1,51,31,22,12,62,42,Abstract_Concrete_6tasks_simseq_2seq_listtask_switchAB_fMRI,720490,54321,23514,2,21,61,A3,glasses,3,8*,695443.8593583,695645.8801149,202.020756599959,0,0
2776,4$,1,52,31,22,11,62,42,Abstract_Concrete_6tasks_simseq_2seq_listtask_switchAB_fMRI,720490,54321,23514,2,22,62,B4,helmet,1,4$,695443.8593583,695654.8822312,211.022872900008,0,0
2028,9(,1,52,32,21,11,62,41,Abstract_Concrete_6tasks_simseq_2seq_listtask_switchAB_fMRI,720490,54321,23514,2,23,63,A4,vest,2,9(,695443.8593583,695664.874571,221.015212700004,0,0
1557,7&,0,51,32,22,12,62,41,Abstract_Concrete_6tasks_simseq_2seq_listtask_switchAB_fMRI,720490,54321,23514,2,24,64,B3,tools,6,3#,695443.8593583,695674.8851783,231.025819999981,695676.4547713,232.595412999974
2079,9(,1,52,32,22,12,61,42,Abstract_Concrete_6tasks_simseq_2seq_listtask_switchAB_fMRI,720490,54321,23514,2,25,65,A4,vest,2,9(,695443.8593583,695683.8785954,240.01923710003,0,0
1813,7&,1,52,32,21,12,61,41,Abstract_Concrete_6tasks_simseq_2seq_listtask_switchAB_fMRI,720490,54321,23514,2,26,66,B5,weapon,5,7&,695443.8593583,695693.8801839,250.020825600019,0,0
2146,7&,1,52,31,21,12,62,41,Abstract_Concrete_6tasks_simseq_2seq_listtask_switchAB_fMRI,720490,54321,23514,2,27,67,A2,weapon,5,7&,695443.8593583,695702.8813978,259.022039500065,0,0
2214,4$,1,52,32,22,12,61,42,Abstract_Concrete_6tasks_simseq_2seq_listtask_switchAB_fMRI,720490,54321,23514,2,28,68,B4,helmet,1,4$,695443.8593583,695712.8835986,269.024240300059,0,0
2065,3#,1,51,31,22,11,62,42,Abstract_Concrete_6tasks_simseq_2seq_listtask_switchAB_fMRI,720490,54321,23514,2,29,69,A1,tools,6,3#,695443.8593583,695722.899253,279.03989470005,0,0
1096,8*,1,51,31,22,12,62,41,Abstract_Concrete_6tasks_simseq_2seq_listtask_switchAB_fMRI,720490,54321,23514,2,30,70,B2,glasses,3,8*,695443.8593583,695732.8775916,289.018233299954,0,0
3487,7&,0,52,31,21,11,61,41,Abstract_Concrete_6tasks_simseq_2seq_listtask_switchAB_fMRI,720490,54321,23514,2,31,71,A5,helmet,1,4$,695443.8593583,695741.8707919,298.011433599982,695745.3709454,301.511587099987
2067,7&,1,52,32,21,12,62,41,Abstract_Concrete_6tasks_simseq_2seq_listtask_switchAB_fMRI,720490,54321,23514,2,32,72,B5,weapon,5,7&,695443.8593583,695752.88186,309.022501699976,0,0
1537,8*,1,51,32,22,12,62,41,Abstract_Concrete_6tasks_simseq_2seq_listtask_switchAB_fMRI,720490,54321,23514,2,33,73,A3,glasses,3,8*,695443.8593583,695762.8715342,319.012175900047,0,0
937,8*,1,51,32,22,11,62,41,Abstract_Concrete_6tasks_simseq_2seq_listtask_switchAB_fMRI,720490,54321,23514,2,34,74,B2,glasses,3,8*,695443.8593583,695771.8857775,328.026419200003,0,0
1813,4$,1,51,32,21,11,62,41,Abstract_Concrete_6tasks_simseq_2seq_listtask_switchAB_fMRI,720490,54321,23514,2,35,75,A5,helmet,1,4$,695443.8593583,695779.8701205,336.010762199992,0,0
1085,8*,1,51,31,21,12,62,42,Abstract_Concrete_6tasks_simseq_2seq_listtask_switchAB_fMRI,720490,54321,23514,2,36,76,B2,glasses,3,8*,695443.8593583,695788.8793592,345.020000900025,0,0
3010,3#,1,51,31,22,12,62,42,Abstract_Concrete_6tasks_simseq_2seq_listtask_switchAB_fMRI,720490,54321,23514,2,37,77,A1,tools,6,3#,695443.8593583,695797.8725839,354.013225600007,0,0
1901,4$,1,52,32,21,12,62,41,Abstract_Concrete_6tasks_simseq_2seq_listtask_switchAB_fMRI,720490,54321,23514,2,38,78,B4,helmet,1,4$,695443.8593583,695808.8719522,365.01259389997,0,0
1223,3#,1,51,31,21,11,62,41,Abstract_Concrete_6tasks_simseq_2seq_listtask_switchAB_fMRI,720490,54321,23514,2,39,79,A1,tools,6,3#,695443.8593583,695817.8700723,374.010713999975,0,0
2178,9(,1,51,31,22,11,61,42,Abstract_Concrete_6tasks_simseq_2seq_listtask_switchAB_fMRI,720490,54321,23514,2,40,80,B1,vest,2,9(,695443.8593583,695826.8718646,383.012506300001,0,0
1825,4$,1,52,31,22,12,61,42,Abstract_Concrete_6tasks_simseq_2seq_listtask_switchAB_fMRI,720490,54321,23514,3,1,81,A5,helmet,1,4$,695910.6356887,695918.648385,8.01269629993476,0,0
2079,4$,1,52,32,21,12,62,41,Abstract_Concrete_6tasks_simseq_2seq_listtask_switchAB_fMRI,720490,54321,23514,3,2,82,B4,helmet,1,4$,695910.6356887,695927.6490532,17.0133645000169,0,0
1245,8*,1,52,32,21,11,62,42,Abstract_Concrete_6tasks_simseq_2seq_listtask_switchAB_fMRI,720490,54321,23514,3,3,83,A3,glasses,3,8*,695910.6356887,695937.6573014,27.0216126999585,0,0
1635,4$,1,52,31,22,11,61,42,Abstract_Concrete_6tasks_simseq_2seq_listtask_switchAB_fMRI,720490,54321,23514,3,4,84,B4,helmet,1,4$,695910.6356887,695946.6483211,36.0126324000303,0,0
1664,9(,1,52,31,21,12,61,42,Abstract_Concrete_6tasks_simseq_2seq_listtask_switchAB_fMRI,720490,54321,23514,3,5,85,A4,vest,2,9(,695910.6356887,695955.656337,45.0206482999492,0,0
2224,4$,1,51,32,22,11,62,42,Abstract_Concrete_6tasks_simseq_2seq_listtask_switchAB_fMRI,720490,54321,23514,3,6,86,B4,helmet,1,4$,695910.6356887,695964.650735,54.0150463000173,0,0
1962,7&,1,52,32,22,12,62,41,Abstract_Concrete_6tasks_simseq_2seq_listtask_switchAB_fMRI,720490,54321,23514,3,7,87,A2,weapon,5,7&,695910.6356887,695974.6508391,64.015150399995,0,0
1125,8*,1,51,31,22,11,61,42,Abstract_Concrete_6tasks_simseq_2seq_listtask_switchAB_fMRI,720490,54321,23514,3,8,88,B2,glasses,3,8*,695910.6356887,695983.6520421,73.0163533999585,0,0
1560,4$,1,52,32,22,11,62,41,Abstract_Concrete_6tasks_simseq_2seq_listtask_switchAB_fMRI,720490,54321,23514,3,9,89,A5,helmet,1,4$,695910.6356887,695992.669575,82.0338862999342,0,0
2433,3#,1,51,32,21,12,62,42,Abstract_Concrete_6tasks_simseq_2seq_listtask_switchAB_fMRI,720490,54321,23514,3,10,90,B3,tools,6,3#,695910.6356887,696001.6542031,91.0185143999988,0,0
1568,7&,1,51,32,21,12,61,42,Abstract_Concrete_6tasks_simseq_2seq_listtask_switchAB_fMRI,720490,54321,23514,3,11,91,A2,weapon,5,7&,695910.6356887,696011.6539515,101.018262799946,0,0
1601,3#,1,51,31,21,12,61,42,Abstract_Concrete_6tasks_simseq_2seq_listtask_switchAB_fMRI,720490,54321,23514,3,12,92,B3,tools,6,3#,695910.6356887,696020.6529157,110.017226999975,0,0
3289,9(,1,52,31,22,12,62,42,Abstract_Concrete_6tasks_simseq_2seq_listtask_switchAB_fMRI,720490,54321,23514,3,13,93,A4,vest,2,9(,695910.6356887,696029.6530739,119.017385200015,0,0
1703,3#,1,51,32,22,12,61,41,Abstract_Concrete_6tasks_simseq_2seq_listtask_switchAB_fMRI,720490,54321,23514,3,14,94,B3,tools,6,3#,695910.6356887,696040.6468429,130.01115419995,0,0
1340,8*,1,51,32,21,12,61,42,Abstract_Concrete_6tasks_simseq_2seq_listtask_switchAB_fMRI,720490,54321,23514,3,15,95,A3,glasses,3,8*,695910.6356887,696049.670936,139.035247299937,0,0
1395,9(,1,52,32,22,11,61,42,Abstract_Concrete_6tasks_simseq_2seq_listtask_switchAB_fMRI,720490,54321,23514,3,16,96,B1,vest,2,9(,695910.6356887,696058.6574202,148.021731499932,0,0
2467,9(,1,52,31,21,12,62,41,Abstract_Concrete_6tasks_simseq_2seq_listtask_switchAB_fMRI,720490,54321,23514,3,17,97,A4,vest,2,9(,695910.6356887,696067.6572654,157.021576700034,0,0
2628,7&,1,52,31,21,12,61,42,Abstract_Concrete_6tasks_simseq_2seq_listtask_switchAB_fMRI,720490,54321,23514,3,18,98,B5,weapon,5,7&,695910.6356887,696077.6627848,167.027096100035,0,0
1093,8*,1,51,31,21,12,62,41,Abstract_Concrete_6tasks_simseq_2seq_listtask_switchAB_fMRI,720490,54321,23514,3,19,99,A3,glasses,3,8*,695910.6356887,696087.6579508,177.022262100014,0,0
1832,7&,1,52,31,21,11,62,41,Abstract_Concrete_6tasks_simseq_2seq_listtask_switchAB_fMRI,720490,54321,23514,3,20,100,B5,weapon,5,7&,695910.6356887,696096.648072,186.012383299996,0,0
1464,4$,1,52,32,21,12,61,41,Abstract_Concrete_6tasks_simseq_2seq_listtask_switchAB_fMRI,720490,54321,23514,3,21,101,A5,helmet,1,4$,695910.6356887,696105.6503549,195.014666200033,0,0
2061,9(,1,51,31,22,11,62,42,Abstract_Concrete_6tasks_simseq_2seq_listtask_switchAB_fMRI,720490,54321,23514,3,22,102,B1,vest,2,9(,695910.6356887,696114.6515875,204.015898799989,0,0
1471,3#,1,51,32,22,11,62,42,Abstract_Concrete_6tasks_simseq_2seq_listtask_switchAB_fMRI,720490,54321,23514,3,23,103,A1,tools,6,3#,695910.6356887,696124.6578333,214.022144599934,0,0
1003,8*,1,51,31,21,11,61,41,Abstract_Concrete_6tasks_simseq_2seq_listtask_switchAB_fMRI,720490,54321,23514,3,24,104,B2,glasses,3,8*,695910.6356887,696133.6557841,223.02009539993,0,0
1445,7&,1,51,32,22,12,61,42,Abstract_Concrete_6tasks_simseq_2seq_listtask_switchAB_fMRI,720490,54321,23514,3,25,105,A2,weapon,5,7&,695910.6356887,696142.648862,232.013173299958,0,0
976,8*,1,51,31,21,11,61,41,Abstract_Concrete_6tasks_simseq_2seq_listtask_switchAB_fMRI,720490,54321,23514,3,26,106,B2,glasses,3,8*,695910.6356887,696151.6594809,241.023792200023,0,0
1515,7&,1,51,31,22,11,62,42,Abstract_Concrete_6tasks_simseq_2seq_listtask_switchAB_fMRI,720490,54321,23514,3,27,107,A2,weapon,5,7&,695910.6356887,696160.6532804,250.017591699958,0,0
1346,9(,1,52,32,22,12,61,42,Abstract_Concrete_6tasks_simseq_2seq_listtask_switchAB_fMRI,720490,54321,23514,3,28,108,B1,vest,2,9(,695910.6356887,696169.6573759,259.021687199944,0,0
1207,8*,1,51,31,22,11,62,42,Abstract_Concrete_6tasks_simseq_2seq_listtask_switchAB_fMRI,720490,54321,23514,3,29,109,A3,glasses,3,8*,695910.6356887,696178.6566944,268.021005699993,0,0
2858,4$,1,52,31,22,11,61,41,Abstract_Concrete_6tasks_simseq_2seq_listtask_switchAB_fMRI,720490,54321,23514,3,30,110,B4,helmet,1,4$,695910.6356887,696187.6515552,277.015866499976,0,0
1403,3#,1,51,32,21,12,61,42,Abstract_Concrete_6tasks_simseq_2seq_listtask_switchAB_fMRI,720490,54321,23514,3,31,111,A1,tools,6,3#,695910.6356887,696197.6560389,287.020350200008,0,0
1143,9(,1,51,32,22,11,61,41,Abstract_Concrete_6tasks_simseq_2seq_listtask_switchAB_fMRI,720490,54321,23514,3,32,112,B1,vest,2,9(,695910.6356887,696206.6477404,296.012051700032,0,0
2028,3#,1,52,31,22,12,62,42,Abstract_Concrete_6tasks_simseq_2seq_listtask_switchAB_fMRI,720490,54321,23514,3,33,113,A1,tools,6,3#,695910.6356887,696215.6676358,305.031947099953,0,0
2342,7&,1,51,32,22,11,61,42,Abstract_Concrete_6tasks_simseq_2seq_listtask_switchAB_fMRI,720490,54321,23514,3,34,114,B5,weapon,5,7&,695910.6356887,696225.6596189,315.023930200026,0,0
1497,3#,1,51,32,21,11,61,41,Abstract_Concrete_6tasks_simseq_2seq_listtask_switchAB_fMRI,720490,54321,23514,3,35,115,A1,tools,6,3#,695910.6356887,696235.6479362,325.01224750001,0,0
3785,3#,1,51,32,21,12,62,42,Abstract_Concrete_6tasks_simseq_2seq_listtask_switchAB_fMRI,720490,54321,23514,3,36,116,B3,tools,6,3#,695910.6356887,696244.6609349,334.025246200035,0,0
1863,4$,1,51,32,21,11,61,42,Abstract_Concrete_6tasks_simseq_2seq_listtask_switchAB_fMRI,720490,54321,23514,3,37,117,A5,helmet,1,4$,695910.6356887,696255.6569637,345.021274999948,0,0
1920,7&,1,52,31,22,12,61,41,Abstract_Concrete_6tasks_simseq_2seq_listtask_switchAB_fMRI,720490,54321,23514,3,38,118,B5,weapon,5,7&,695910.6356887,696264.6473562,354.011667500017,0,0
2781,9(,1,52,32,21,12,61,41,Abstract_Concrete_6tasks_simseq_2seq_listtask_switchAB_fMRI,720490,54321,23514,3,39,119,A4,vest,2,9(,695910.6356887,696273.6484092,363.012720500003,0,0
1900,8*,1,51,31,21,11,61,42,Abstract_Concrete_6tasks_simseq_2seq_listtask_switchAB_fMRI,720490,54321,23514,3,40,120,B2,glasses,3,8*,695910.6356887,696283.6597601,373.024071399937,0,0
1290,3#,1,52,31,21,12,62,42,Abstract_Concrete_6tasks_simseq_2seq_listtask_switchAB_fMRI,720490,54321,23514,4,1,121,A1,tools,6,3#,696364.8586318,696372.9106393,8.05200749996584,0,0
3540,3#,1,51,31,22,11,61,41,Abstract_Concrete_6tasks_simseq_2seq_listtask_switchAB_fMRI,720490,54321,23514,4,2,122,B3,tools,6,3#,696364.8586318,696381.8755453,17.016913499916,0,0
1488,4$,1,51,32,21,11,61,42,Abstract_Concrete_6tasks_simseq_2seq_listtask_switchAB_fMRI,720490,54321,23514,4,3,123,A5,helmet,1,4$,696364.8586318,696392.8721873,28.0135554999579,0,0
1246,9(,1,51,31,22,11,61,42,Abstract_Concrete_6tasks_simseq_2seq_listtask_switchAB_fMRI,720490,54321,23514,4,4,124,B1,vest,2,9(,696364.8586318,696401.8740376,37.0154057999607,0,0
1960,9(,1,51,31,22,11,62,42,Abstract_Concrete_6tasks_simseq_2seq_listtask_switchAB_fMRI,720490,54321,23514,4,5,125,A4,vest,2,9(,696364.8586318,696410.8812594,46.022627600003,0,0
1035,8*,1,52,32,22,11,61,42,Abstract_Concrete_6tasks_simseq_2seq_listtask_switchAB_fMRI,720490,54321,23514,4,6,126,B2,glasses,3,8*,696364.8586318,696419.8753911,55.016759299906,0,0
1503,9(,1,51,32,21,11,61,41,Abstract_Concrete_6tasks_simseq_2seq_listtask_switchAB_fMRI,720490,54321,23514,4,7,127,A4,vest,2,9(,696364.8586318,696428.8704405,64.0118086999282,0,0
2900,3#,0,52,32,21,11,62,42,Abstract_Concrete_6tasks_simseq_2seq_listtask_switchAB_fMRI,720490,54321,23514,4,8,128,B4,helmet,1,4$,696364.8586318,696437.8844542,73.025822399999,696440.7983381,75.9397062999196
2737,9(,1,52,31,21,12,62,41,Abstract_Concrete_6tasks_simseq_2seq_listtask_switchAB_fMRI,720490,54321,23514,4,9,129,A4,vest,2,9(,696364.8586318,696447.8720768,83.0134449999314,0,0
2459,7&,1,52,31,22,11,62,41,Abstract_Concrete_6tasks_simseq_2seq_listtask_switchAB_fMRI,720490,54321,23514,4,10,130,B5,weapon,5,7&,696364.8586318,696457.8760269,93.0173950999742,0,0
2336,3#,1,51,32,21,12,61,41,Abstract_Concrete_6tasks_simseq_2seq_listtask_switchAB_fMRI,720490,54321,23514,4,11,131,A1,tools,6,3#,696364.8586318,696467.8874233,103.028791499906,0,0
1461,8*,1,51,32,21,11,61,42,Abstract_Concrete_6tasks_simseq_2seq_listtask_switchAB_fMRI,720490,54321,23514,4,12,132,B2,glasses,3,8*,696364.8586318,696477.8763479,113.017716099974,0,0
1898,4$,1,52,32,22,12,61,42,Abstract_Concrete_6tasks_simseq_2seq_listtask_switchAB_fMRI,720490,54321,23514,4,13,133,A5,helmet,1,4$,696364.8586318,696486.8937451,122.035113299964,0,0
2256,9(,1,51,32,21,11,61,41,Abstract_Concrete_6tasks_simseq_2seq_listtask_switchAB_fMRI,720490,54321,23514,4,14,134,B1,vest,2,9(,696364.8586318,696495.8718123,131.013180500013,0,0
1335,8*,1,52,32,21,12,61,42,Abstract_Concrete_6tasks_simseq_2seq_listtask_switchAB_fMRI,720490,54321,23514,4,15,135,A3,glasses,3,8*,696364.8586318,696505.8738247,141.015192899969,0,0
2346,9(,1,52,31,22,12,61,42,Abstract_Concrete_6tasks_simseq_2seq_listtask_switchAB_fMRI,720490,54321,23514,4,16,136,B1,vest,2,9(,696364.8586318,696514.8944036,150.035771799972,0,0
1047,8*,1,51,31,22,12,62,41,Abstract_Concrete_6tasks_simseq_2seq_listtask_switchAB_fMRI,720490,54321,23514,4,17,137,A3,glasses,3,8*,696364.8586318,696524.8780911,160.019459299976,0,0
1567,3#,1,51,32,21,11,61,41,Abstract_Concrete_6tasks_simseq_2seq_listtask_switchAB_fMRI,720490,54321,23514,4,18,138,B3,tools,6,3#,696364.8586318,696533.8805641,169.021932299947,0,0
1876,9(,1,52,32,22,11,62,41,Abstract_Concrete_6tasks_simseq_2seq_listtask_switchAB_fMRI,720490,54321,23514,4,19,139,A4,vest,2,9(,696364.8586318,696542.8720585,178.013426699908,0,0
2774,4$,1,52,32,21,11,61,42,Abstract_Concrete_6tasks_simseq_2seq_listtask_switchAB_fMRI,720490,54321,23514,4,20,140,B4,helmet,1,4$,696364.8586318,696551.8789512,187.020319400006,0,0
1619,7&,1,51,32,22,12,61,41,Abstract_Concrete_6tasks_simseq_2seq_listtask_switchAB_fMRI,720490,54321,23514,4,21,141,A2,weapon,5,7&,696364.8586318,696561.8701504,197.011518599931,0,0
2457,3#,1,51,31,21,12,62,41,Abstract_Concrete_6tasks_simseq_2seq_listtask_switchAB_fMRI,720490,54321,23514,4,22,142,B3,tools,6,3#,696364.8586318,696570.8796685,206.021036699996,0,0
1357,7&,1,51,32,22,11,61,42,Abstract_Concrete_6tasks_simseq_2seq_listtask_switchAB_fMRI,720490,54321,23514,4,23,143,A2,weapon,5,7&,696364.8586318,696580.8763474,216.01771559997,0,0
1953,3#,1,51,32,22,12,61,42,Abstract_Concrete_6tasks_simseq_2seq_listtask_switchAB_fMRI,720490,54321,23514,4,24,144,B3,tools,6,3#,696364.8586318,696589.876941,225.01830919995,0,0
1867,8*,1,52,31,21,11,61,42,Abstract_Concrete_6tasks_simseq_2seq_listtask_switchAB_fMRI,720490,54321,23514,4,25,145,A3,glasses,3,8*,696364.8586318,696598.8741457,234.015513899969,0,0
1930,7&,1,52,31,21,12,62,41,Abstract_Concrete_6tasks_simseq_2seq_listtask_switchAB_fMRI,720490,54321,23514,4,26,146,B5,weapon,5,7&,696364.8586318,696607.8817681,243.023136299918,0,0
2039,4$,1,52,31,21,11,62,41,Abstract_Concrete_6tasks_simseq_2seq_listtask_switchAB_fMRI,720490,54321,23514,4,27,147,A5,helmet,1,4$,696364.8586318,696616.8755692,252.016937399982,0,0
1758,7&,1,52,31,22,11,61,41,Abstract_Concrete_6tasks_simseq_2seq_listtask_switchAB_fMRI,720490,54321,23514,4,28,148,B5,weapon,5,7&,696364.8586318,696626.8808299,262.022198099992,0,0
1836,8*,1,51,31,22,12,61,41,Abstract_Concrete_6tasks_simseq_2seq_listtask_switchAB_fMRI,720490,54321,23514,4,29,149,A3,glasses,3,8*,696364.8586318,696635.8810652,271.022433399921,0,0
2472,7&,1,51,31,22,12,62,41,Abstract_Concrete_6tasks_simseq_2seq_listtask_switchAB_fMRI,720490,54321,23514,4,30,150,B5,weapon,5,7&,696364.8586318,696644.8794276,280.020795799908,0,0
1216,7&,1,51,31,21,12,62,41,Abstract_Concrete_6tasks_simseq_2seq_listtask_switchAB_fMRI,720490,54321,23514,4,31,151,A2,weapon,5,7&,696364.8586318,696654.8696165,290.01098469994,0,0
1887,4$,1,52,32,21,12,62,41,Abstract_Concrete_6tasks_simseq_2seq_listtask_switchAB_fMRI,720490,54321,23514,4,32,152,B4,helmet,1,4$,696364.8586318,696663.8799362,299.021304399939,0,0
1256,3#,1,51,31,22,12,61,42,Abstract_Concrete_6tasks_simseq_2seq_listtask_switchAB_fMRI,720490,54321,23514,4,33,153,A1,tools,6,3#,696364.8586318,696672.8735641,308.014932299964,0,0
1513,4$,1,52,31,21,11,61,41,Abstract_Concrete_6tasks_simseq_2seq_listtask_switchAB_fMRI,720490,54321,23514,4,34,154,B4,helmet,1,4$,696364.8586318,696681.880751,317.022119199974,0,0
1925,4$,1,52,31,21,12,62,41,Abstract_Concrete_6tasks_simseq_2seq_listtask_switchAB_fMRI,720490,54321,23514,4,35,155,A5,helmet,1,4$,696364.8586318,696690.8722687,326.013636899996,0,0
1162,8*,1,52,32,21,11,61,41,Abstract_Concrete_6tasks_simseq_2seq_listtask_switchAB_fMRI,720490,54321,23514,4,36,156,B2,glasses,3,8*,696364.8586318,696699.869192,335.010560199968,0,0
1596,3#,1,51,31,21,12,61,41,Abstract_Concrete_6tasks_simseq_2seq_listtask_switchAB_fMRI,720490,54321,23514,4,37,157,A1,tools,6,3#,696364.8586318,696708.8752652,344.016633399995,0,0
880,9(,1,52,31,21,12,61,42,Abstract_Concrete_6tasks_simseq_2seq_listtask_switchAB_fMRI,720490,54321,23514,4,38,158,B1,vest,2,9(,696364.8586318,696717.8806345,353.022002699901,0,0
1487,7&,1,52,32,21,11,61,41,Abstract_Concrete_6tasks_simseq_2seq_listtask_switchAB_fMRI,720490,54321,23514,4,39,159,A2,weapon,5,7&,696364.8586318,696725.8704569,361.011825099937,0,0
1043,8*,1,52,32,22,12,61,42,Abstract_Concrete_6tasks_simseq_2seq_listtask_switchAB_fMRI,720490,54321,23514,4,40,160,B2,glasses,3,8*,696364.8586318,696734.8789084,370.020276599913,0,0
1431,4$,1,51,32,22,12,61,42,Abstract_Concrete_6tasks_simseq_2seq_listtask_switchAB_fMRI,720490,54321,23514,5,1,161,A5,helmet,1,4$,696808.3525173,696816.3748972,8.02237989997957,0,0
1200,9(,1,52,31,21,12,61,42,Abstract_Concrete_6tasks_simseq_2seq_listtask_switchAB_fMRI,720490,54321,23514,5,2,162,B1,vest,2,9(,696808.3525173,696825.3728842,17.020366899902,0,0
1449,4$,1,52,32,22,12,62,41,Abstract_Concrete_6tasks_simseq_2seq_listtask_switchAB_fMRI,720490,54321,23514,5,3,163,A5,helmet,1,4$,696808.3525173,696834.3733731,26.0208557998994,0,0
1788,3#,1,51,32,21,12,61,42,Abstract_Concrete_6tasks_simseq_2seq_listtask_switchAB_fMRI,720490,54321,23514,5,4,164,B3,tools,6,3#,696808.3525173,696843.3664864,35.013969099964,0,0
1341,4$,1,52,32,21,12,62,42,Abstract_Concrete_6tasks_simseq_2seq_listtask_switchAB_fMRI,720490,54321,23514,5,5,165,A5,helmet,1,4$,696808.3525173,696852.363049,44.0105316999834,0,0
927,9(,1,52,32,21,11,62,41,Abstract_Concrete_6tasks_simseq_2seq_listtask_switchAB_fMRI,720490,54321,23514,5,6,166,B1,vest,2,9(,696808.3525173,696861.3867264,53.0342090999475,0,0
1435,3#,1,51,32,22,11,62,42,Abstract_Concrete_6tasks_simseq_2seq_listtask_switchAB_fMRI,720490,54321,23514,5,7,167,A1,tools,6,3#,696808.3525173,696869.3726657,61.0201483999845,0,0
1561,9(,1,51,31,22,11,62,42,Abstract_Concrete_6tasks_simseq_2seq_listtask_switchAB_fMRI,720490,54321,23514,5,8,168,B1,vest,2,9(,696808.3525173,696878.3647016,70.0121842999943,0,0
1341,8*,1,52,31,21,12,61,41,Abstract_Concrete_6tasks_simseq_2seq_listtask_switchAB_fMRI,720490,54321,23514,5,9,169,A3,glasses,3,8*,696808.3525173,696887.3638293,79.0113119999878,0,0
1832,4$,1,51,32,22,12,61,42,Abstract_Concrete_6tasks_simseq_2seq_listtask_switchAB_fMRI,720490,54321,23514,5,10,170,B4,helmet,1,4$,696808.3525173,696896.3666877,88.0141703999834,0,0
2671,7&,1,52,32,22,12,61,41,Abstract_Concrete_6tasks_simseq_2seq_listtask_switchAB_fMRI,720490,54321,23514,5,11,171,A2,weapon,5,7&,696808.3525173,696905.3770605,97.024543199921,0,0
1944,4$,1,52,32,21,11,61,41,Abstract_Concrete_6tasks_simseq_2seq_listtask_switchAB_fMRI,720490,54321,23514,5,12,172,B4,helmet,1,4$,696808.3525173,696915.3672406,107.014723300003,0,0
1804,9(,1,51,31,22,11,62,42,Abstract_Concrete_6tasks_simseq_2seq_listtask_switchAB_fMRI,720490,54321,23514,5,13,173,A4,vest,2,9(,696808.3525173,696924.3646794,116.012162099942,0,0
1331,8*,1,52,31,22,12,61,41,Abstract_Concrete_6tasks_simseq_2seq_listtask_switchAB_fMRI,720490,54321,23514,5,14,174,B2,glasses,3,8*,696808.3525173,696933.3700388,125.017521500005,0,0
1082,8*,1,52,31,21,11,61,41,Abstract_Concrete_6tasks_simseq_2seq_listtask_switchAB_fMRI,720490,54321,23514,5,15,175,A3,glasses,3,8*,696808.3525173,696942.3885577,134.036040399922,0,0
2104,9(,1,51,32,22,11,62,42,Abstract_Concrete_6tasks_simseq_2seq_listtask_switchAB_fMRI,720490,54321,23514,5,16,176,B1,vest,2,9(,696808.3525173,696951.3716171,143.019099799916,0,0
2778,4$,1,51,31,21,11,61,41,Abstract_Concrete_6tasks_simseq_2seq_listtask_switchAB_fMRI,720490,54321,23514,5,17,177,A5,helmet,1,4$,696808.3525173,696961.3693796,153.016862299992,0,0
1507,7&,1,52,31,22,11,61,41,Abstract_Concrete_6tasks_simseq_2seq_listtask_switchAB_fMRI,720490,54321,23514,5,18,178,B5,weapon,5,7&,696808.3525173,696971.3623614,163.009844099986,0,0
4241,3#,1,52,32,21,11,62,42,Abstract_Concrete_6tasks_simseq_2seq_listtask_switchAB_fMRI,720490,54321,23514,5,19,179,A1,tools,6,3#,696808.3525173,696980.3674856,172.014968300005,0,0
2450,3#,1,52,32,21,11,62,42,Abstract_Concrete_6tasks_simseq_2seq_listtask_switchAB_fMRI,720490,54321,23514,5,20,180,B3,tools,6,3#,696808.3525173,696992.3748201,184.022302799975,0,0
1727,7&,1,51,31,21,11,62,41,Abstract_Concrete_6tasks_simseq_2seq_listtask_switchAB_fMRI,720490,54321,23514,5,21,181,A2,weapon,5,7&,696808.3525173,697002.3679265,194.015409199987,0,0
1217,4$,1,52,31,21,11,62,42,Abstract_Concrete_6tasks_simseq_2seq_listtask_switchAB_fMRI,720490,54321,23514,5,22,182,B4,helmet,1,4$,696808.3525173,697011.3706146,203.018097299966,0,0
1684,9(,1,52,31,21,11,62,42,Abstract_Concrete_6tasks_simseq_2seq_listtask_switchAB_fMRI,720490,54321,23514,5,23,183,A4,vest,2,9(,696808.3525173,697020.3736236,212.021106299944,0,0
1768,3#,1,52,32,21,11,61,42,Abstract_Concrete_6tasks_simseq_2seq_listtask_switchAB_fMRI,720490,54321,23514,5,24,184,B3,tools,6,3#,696808.3525173,697029.385607,221.033089699922,0,0
2632,7&,1,52,32,21,11,61,42,Abstract_Concrete_6tasks_simseq_2seq_listtask_switchAB_fMRI,720490,54321,23514,5,25,185,A2,weapon,5,7&,696808.3525173,697038.3715559,230.019038599916,0,0
1390,8*,1,51,31,22,11,61,42,Abstract_Concrete_6tasks_simseq_2seq_listtask_switchAB_fMRI,720490,54321,23514,5,26,186,B2,glasses,3,8*,696808.3525173,697048.3648162,240.012298899936,0,0
1404,3#,1,51,32,22,11,61,41,Abstract_Concrete_6tasks_simseq_2seq_listtask_switchAB_fMRI,720490,54321,23514,5,27,187,A1,tools,6,3#,696808.3525173,697057.3678726,249.015355299925,0,0
1335,7&,1,51,32,21,12,61,42,Abstract_Concrete_6tasks_simseq_2seq_listtask_switchAB_fMRI,720490,54321,23514,5,28,188,B5,weapon,5,7&,696808.3525173,697066.3646378,258.012120499974,0,0
1548,7&,1,51,32,22,11,61,42,Abstract_Concrete_6tasks_simseq_2seq_listtask_switchAB_fMRI,720490,54321,23514,5,29,189,A2,weapon,5,7&,696808.3525173,697075.3694649,267.016947599943,0,0
1217,8*,1,51,31,21,11,61,42,Abstract_Concrete_6tasks_simseq_2seq_listtask_switchAB_fMRI,720490,54321,23514,5,30,190,B2,glasses,3,8*,696808.3525173,697084.3668506,276.014333299943,0,0
1569,9(,1,51,32,22,12,62,41,Abstract_Concrete_6tasks_simseq_2seq_listtask_switchAB_fMRI,720490,54321,23514,5,31,191,A4,vest,2,9(,696808.3525173,697093.3675585,285.015041199978,0,0
1628,4$,1,51,32,21,12,61,41,Abstract_Concrete_6tasks_simseq_2seq_listtask_switchAB_fMRI,720490,54321,23514,5,32,192,B4,helmet,1,4$,696808.3525173,697102.3702334,294.017716099974,0,0
1541,8*,1,51,32,22,11,61,42,Abstract_Concrete_6tasks_simseq_2seq_listtask_switchAB_fMRI,720490,54321,23514,5,33,193,A3,glasses,3,8*,696808.3525173,697111.3848182,303.032300899969,0,0
2278,3#,1,52,31,22,11,61,41,Abstract_Concrete_6tasks_simseq_2seq_listtask_switchAB_fMRI,720490,54321,23514,5,34,194,B3,tools,6,3#,696808.3525173,697120.3649886,312.012471299968,0,0
1772,9(,1,52,31,22,12,62,41,Abstract_Concrete_6tasks_simseq_2seq_listtask_switchAB_fMRI,720490,54321,23514,5,35,195,A4,vest,2,9(,696808.3525173,697130.374572,322.022054699948,0,0
1332,8*,1,51,31,22,11,61,42,Abstract_Concrete_6tasks_simseq_2seq_listtask_switchAB_fMRI,720490,54321,23514,5,36,196,B2,glasses,3,8*,696808.3525173,697139.3707968,331.018279499956,0,0
1109,8*,1,52,31,22,11,61,41,Abstract_Concrete_6tasks_simseq_2seq_listtask_switchAB_fMRI,720490,54321,23514,5,37,197,A3,glasses,3,8*,696808.3525173,697148.3771141,340.02459679998,0,0
1651,7&,1,52,31,22,11,62,41,Abstract_Concrete_6tasks_simseq_2seq_listtask_switchAB_fMRI,720490,54321,23514,5,38,198,B5,weapon,5,7&,696808.3525173,697157.3668396,349.014322299976,0,0
1347,3#,1,52,31,22,12,62,41,Abstract_Concrete_6tasks_simseq_2seq_listtask_switchAB_fMRI,720490,54321,23514,5,39,199,A1,tools,6,3#,696808.3525173,697166.3743253,358.021807999932,0,0
1626,7&,1,51,32,21,11,61,42,Abstract_Concrete_6tasks_simseq_2seq_listtask_switchAB_fMRI,720490,54321,23514,5,40,200,B5,weapon,5,7&,696808.3525173,697175.369583,367.017065699911,0,0
1040,8*,1,52,31,22,12,62,42,Abstract_Concrete_6tasks_simseq_2seq_listtask_switchAB_fMRI,720490,54321,23514,6,1,201,A3,glasses,3,8*,697239.4498742,697247.4609532,8.01107899995986,0,0
1644,7&,1,52,31,21,12,61,41,Abstract_Concrete_6tasks_simseq_2seq_listtask_switchAB_fMRI,720490,54321,23514,6,2,202,B5,weapon,5,7&,697239.4498742,697256.4713033,17.0214290999575,0,0
1183,7&,1,51,32,22,11,62,41,Abstract_Concrete_6tasks_simseq_2seq_listtask_switchAB_fMRI,720490,54321,23514,6,3,203,A2,weapon,5,7&,697239.4498742,697265.4736233,26.023749099928,0,0
1773,3#,1,52,31,21,11,61,42,Abstract_Concrete_6tasks_simseq_2seq_listtask_switchAB_fMRI,720490,54321,23514,6,4,204,B3,tools,6,3#,697239.4498742,697274.4775881,35.0277138999663,0,0
1832,4$,1,51,31,22,11,61,41,Abstract_Concrete_6tasks_simseq_2seq_listtask_switchAB_fMRI,720490,54321,23514,6,5,205,A5,helmet,1,4$,697239.4498742,697283.478316,44.028441799921,0,0
2163,4$,1,51,31,21,11,62,41,Abstract_Concrete_6tasks_simseq_2seq_listtask_switchAB_fMRI,720490,54321,23514,6,6,206,B4,helmet,1,4$,697239.4498742,697292.4682794,53.0184051999822,0,0
1496,8*,1,52,32,21,11,61,41,Abstract_Concrete_6tasks_simseq_2seq_listtask_switchAB_fMRI,720490,54321,23514,6,7,207,A3,glasses,3,8*,697239.4498742,697302.4734582,63.0235839999514,0,0
1619,9(,1,51,32,21,12,62,42,Abstract_Concrete_6tasks_simseq_2seq_listtask_switchAB_fMRI,720490,54321,23514,6,8,208,B1,vest,2,9(,697239.4498742,697311.4712572,72.0213829999557,0,0
1235,4$,1,52,32,21,11,62,42,Abstract_Concrete_6tasks_simseq_2seq_listtask_switchAB_fMRI,720490,54321,23514,6,9,209,A5,helmet,1,4$,697239.4498742,697320.4658058,81.0159316000063,0,0
1596,7&,1,52,31,21,12,62,42,Abstract_Concrete_6tasks_simseq_2seq_listtask_switchAB_fMRI,720490,54321,23514,6,10,210,B5,weapon,5,7&,697239.4498742,697329.4730627,90.0231884999666,0,0
1868,9(,1,51,32,22,12,61,41,Abstract_Concrete_6tasks_simseq_2seq_listtask_switchAB_fMRI,720490,54321,23514,6,11,211,A4,vest,2,9(,697239.4498742,697338.4669989,99.0171247000108,0,0
3029,9(,1,52,31,21,12,61,41,Abstract_Concrete_6tasks_simseq_2seq_listtask_switchAB_fMRI,720490,54321,23514,6,12,212,B1,vest,2,9(,697239.4498742,697347.4805029,108.030628699926,0,0
1832,7&,1,52,32,22,11,61,41,Abstract_Concrete_6tasks_simseq_2seq_listtask_switchAB_fMRI,720490,54321,23514,6,13,213,A2,weapon,5,7&,697239.4498742,697358.4728102,119.022935999907,0,0
2484,4$,1,51,32,21,11,61,41,Abstract_Concrete_6tasks_simseq_2seq_listtask_switchAB_fMRI,720490,54321,23514,6,14,214,B4,helmet,1,4$,697239.4498742,697367.4777146,128.027840399998,0,0
2296,9(,1,51,31,22,12,62,42,Abstract_Concrete_6tasks_simseq_2seq_listtask_switchAB_fMRI,720490,54321,23514,6,15,215,A4,vest,2,9(,697239.4498742,697377.4613433,138.011469099903,0,0
1232,8*,1,52,31,21,11,62,41,Abstract_Concrete_6tasks_simseq_2seq_listtask_switchAB_fMRI,720490,54321,23514,6,16,216,B2,glasses,3,8*,697239.4498742,697387.4627315,148.012857299997,0,0
1569,3#,1,51,32,21,12,61,41,Abstract_Concrete_6tasks_simseq_2seq_listtask_switchAB_fMRI,720490,54321,23514,6,17,217,A1,tools,6,3#,697239.4498742,697396.4700289,157.020154699916,0,0
2668,3#,1,51,31,21,12,62,41,Abstract_Concrete_6tasks_simseq_2seq_listtask_switchAB_fMRI,720490,54321,23514,6,18,218,B3,tools,6,3#,697239.4498742,697405.47009,166.020215799916,0,0
1708,3#,1,51,31,22,12,61,41,Abstract_Concrete_6tasks_simseq_2seq_listtask_switchAB_fMRI,720490,54321,23514,6,19,219,A1,tools,6,3#,697239.4498742,697415.462729,176.012854799978,0,0
1523,8*,1,51,32,22,12,61,42,Abstract_Concrete_6tasks_simseq_2seq_listtask_switchAB_fMRI,720490,54321,23514,6,20,220,B2,glasses,3,8*,697239.4498742,697424.4726369,185.022762699984,0,0
1341,8*,1,52,31,21,11,61,41,Abstract_Concrete_6tasks_simseq_2seq_listtask_switchAB_fMRI,720490,54321,23514,6,21,221,A3,glasses,3,8*,697239.4498742,697433.4645625,194.014688299969,0,0
946,9(,1,51,31,22,11,61,41,Abstract_Concrete_6tasks_simseq_2seq_listtask_switchAB_fMRI,720490,54321,23514,6,22,222,B1,vest,2,9(,697239.4498742,697442.4615182,203.011643999955,0,0
1579,9(,1,51,31,22,12,62,41,Abstract_Concrete_6tasks_simseq_2seq_listtask_switchAB_fMRI,720490,54321,23514,6,23,223,A4,vest,2,9(,697239.4498742,697450.4656043,211.015730099985,0,0
2025,7&,1,51,31,22,12,61,41,Abstract_Concrete_6tasks_simseq_2seq_listtask_switchAB_fMRI,720490,54321,23514,6,24,224,B5,weapon,5,7&,697239.4498742,697459.461789,220.011914799921,0,0
1292,4$,1,51,32,22,12,61,42,Abstract_Concrete_6tasks_simseq_2seq_listtask_switchAB_fMRI,720490,54321,23514,6,25,225,A5,helmet,1,4$,697239.4498742,697469.4656229,230.015748700011,0,0
966,9(,1,51,32,21,12,62,42,Abstract_Concrete_6tasks_simseq_2seq_listtask_switchAB_fMRI,720490,54321,23514,6,26,226,B1,vest,2,9(,697239.4498742,697478.467427,239.017552800011,0,0
1304,3#,1,52,32,22,11,61,42,Abstract_Concrete_6tasks_simseq_2seq_listtask_switchAB_fMRI,720490,54321,23514,6,27,227,A1,tools,6,3#,697239.4498742,697486.4658518,247.015977600007,0,0
1179,8*,1,51,31,22,11,61,42,Abstract_Concrete_6tasks_simseq_2seq_listtask_switchAB_fMRI,720490,54321,23514,6,28,228,B2,glasses,3,8*,697239.4498742,697495.4647903,256.014916099957,0,0
1727,9(,1,52,31,21,11,61,42,Abstract_Concrete_6tasks_simseq_2seq_listtask_switchAB_fMRI,720490,54321,23514,6,29,229,A4,vest,2,9(,697239.4498742,697504.4705582,265.020683999988,0,0
1580,7&,1,51,32,21,12,61,41,Abstract_Concrete_6tasks_simseq_2seq_listtask_switchAB_fMRI,720490,54321,23514,6,30,230,B5,weapon,5,7&,697239.4498742,697513.4677551,274.017880899948,0,0
990,7&,1,51,31,22,11,61,42,Abstract_Concrete_6tasks_simseq_2seq_listtask_switchAB_fMRI,720490,54321,23514,6,31,231,A2,weapon,5,7&,697239.4498742,697522.4682183,283.018344099983,0,0
1689,3#,1,52,31,22,11,62,42,Abstract_Concrete_6tasks_simseq_2seq_listtask_switchAB_fMRI,720490,54321,23514,6,32,232,B3,tools,6,3#,697239.4498742,697531.4609359,292.011061699945,0,0
1486,8*,0,52,32,21,12,61,42,Abstract_Concrete_6tasks_simseq_2seq_listtask_switchAB_fMRI,720490,54321,23514,6,33,233,A2,weapon,5,7&,697239.4498742,697540.4670909,301.017216700013,697541.9665499,302.516675699968
1532,3#,1,52,32,22,12,62,41,Abstract_Concrete_6tasks_simseq_2seq_listtask_switchAB_fMRI,720490,54321,23514,6,34,234,B3,tools,6,3#,697239.4498742,697549.462431,310.01255679992,0,0
1925,4$,1,52,31,22,11,62,41,Abstract_Concrete_6tasks_simseq_2seq_listtask_switchAB_fMRI,720490,54321,23514,6,35,235,A5,helmet,1,4$,697239.4498742,697558.4625987,319.012724499917,0,0
1193,8*,1,52,32,22,11,61,42,Abstract_Concrete_6tasks_simseq_2seq_listtask_switchAB_fMRI,720490,54321,23514,6,36,236,B2,glasses,3,8*,697239.4498742,697567.4632986,328.013424400007,0,0
1128,3#,1,52,31,21,11,61,41,Abstract_Concrete_6tasks_simseq_2seq_listtask_switchAB_fMRI,720490,54321,23514,6,37,237,A1,tools,6,3#,697239.4498742,697576.4635835,337.013709299965,0,0
2536,4$,1,51,31,21,11,62,41,Abstract_Concrete_6tasks_simseq_2seq_listtask_switchAB_fMRI,720490,54321,23514,6,38,238,B4,helmet,1,4$,697239.4498742,697585.4683874,346.01851319999,0,0
923,8*,1,52,31,22,11,62,41,Abstract_Concrete_6tasks_simseq_2seq_listtask_switchAB_fMRI,720490,54321,23514,6,39,239,A3,glasses,3,8*,697239.4498742,697595.46048,356.010605799966,0,0
2516,4$,1,51,31,22,11,62,41,Abstract_Concrete_6tasks_simseq_2seq_listtask_switchAB_fMRI,720490,54321,23514,6,40,240,B4,helmet,1,4$,697239.4498742,697603.4674009,364.017526699929,0,0
