rt1,resp1,correct1,features_1,features_2,features_3,features_4,features_5,features_6,ExpName,subNo,seqA,seqB,block,trial,trialnum,cuetype,task,subtaskcode,corr_resp1,onsetTime_s,onsetTime_cue,onset_cue,onsetTime_cue_fb,onset_cue_fb
5220,7&,1,32,12,22,52,61,42,Abstract_Concrete_6tasks_simseq_2seq_listtask_switchAB_fMRI,730666,53241,42513,1,1,1,A2,glasses,3,7&,2100.1336131,2108.1463509,8.0127378000002,0,0
3362,4$,1,32,11,21,52,61,41,Abstract_Concrete_6tasks_simseq_2seq_listtask_switchAB_fMRI,730666,53241,42513,1,2,2,B1,weapon,5,4$,2100.1336131,2121.1451807,21.0115676,0,0
4147,8*,1,32,12,21,51,61,42,Abstract_Concrete_6tasks_simseq_2seq_listtask_switchAB_fMRI,730666,53241,42513,1,3,3,A5,helmet,1,8*,2100.1336131,2132.1449947,32.0113816000003,0,0
2543,9(,1,32,12,22,52,62,42,Abstract_Concrete_6tasks_simseq_2seq_listtask_switchAB_fMRI,730666,53241,42513,1,4,4,B2,vest,2,9(,2100.1336131,2144.1455284,44.0119153000001,0,0
4655,4$,1,32,11,22,52,62,42,Abstract_Concrete_6tasks_simseq_2seq_listtask_switchAB_fMRI,730666,53241,42513,1,5,5,A4,weapon,5,4$,2100.1336131,2154.1473247,54.0137116000001,0,0
2578,9(,1,32,12,21,52,62,42,Abstract_Concrete_6tasks_simseq_2seq_listtask_switchAB_fMRI,730666,53241,42513,1,6,6,B2,vest,2,9(,2100.1336131,2166.1456369,66.0120238000004,0,0
3528,8*,1,31,12,21,51,62,42,Abstract_Concrete_6tasks_simseq_2seq_listtask_switchAB_fMRI,730666,53241,42513,1,7,7,A5,helmet,1,8*,2100.1336131,2176.1463503,76.0127372000002,0,0
4292,4$,1,32,12,22,51,62,42,Abstract_Concrete_6tasks_simseq_2seq_listtask_switchAB_fMRI,730666,53241,42513,1,8,8,B1,weapon,5,4$,2100.1336131,2187.146417,87.0128039000001,0,0
2292,7&,1,31,11,22,52,61,41,Abstract_Concrete_6tasks_simseq_2seq_listtask_switchAB_fMRI,730666,53241,42513,1,9,9,A2,glasses,3,7&,2100.1336131,2199.1462166,99.0126035000003,0,0
3545,4$,0,32,11,21,51,62,41,Abstract_Concrete_6tasks_simseq_2seq_listtask_switchAB_fMRI,730666,53241,42513,1,10,10,B4,helmet,1,8*,2100.1336131,2209.1461864,109.0125733,2212.7069168,112.5733037
3337,9(,1,31,12,21,52,61,41,Abstract_Concrete_6tasks_simseq_2seq_listtask_switchAB_fMRI,730666,53241,42513,1,11,11,A3,vest,2,9(,2100.1336131,2220.1443797,120.0107666,0,0
3388,7&,1,32,12,22,51,62,41,Abstract_Concrete_6tasks_simseq_2seq_listtask_switchAB_fMRI,730666,53241,42513,1,12,12,B5,glasses,3,7&,2100.1336131,2231.1474449,131.0138318,0,0
2898,3#,1,31,12,21,52,61,42,Abstract_Concrete_6tasks_simseq_2seq_listtask_switchAB_fMRI,730666,53241,42513,1,13,13,A1,tools,6,3#,2100.1336131,2242.1452332,142.0116201,0,0
2933,8*,1,31,11,21,52,61,42,Abstract_Concrete_6tasks_simseq_2seq_listtask_switchAB_fMRI,730666,53241,42513,1,14,14,B4,helmet,1,8*,2100.1336131,2252.1441931,152.01058,0,0
2233,9(,1,32,11,21,52,61,42,Abstract_Concrete_6tasks_simseq_2seq_listtask_switchAB_fMRI,730666,53241,42513,1,15,15,A3,vest,2,9(,2100.1336131,2262.1450462,162.0114331,0,0
4163,4$,0,32,12,22,52,62,42,Abstract_Concrete_6tasks_simseq_2seq_listtask_switchAB_fMRI,730666,53241,42513,1,16,16,B3,tools,6,3#,2100.1336131,2272.1463125,172.0126994,2276.3222884,176.1886753
3579,4$,1,31,12,22,52,62,42,Abstract_Concrete_6tasks_simseq_2seq_listtask_switchAB_fMRI,730666,53241,42513,1,17,17,A4,weapon,5,4$,2100.1336131,2284.1438024,184.0101893,0,0
1972,7&,1,31,12,22,52,61,42,Abstract_Concrete_6tasks_simseq_2seq_listtask_switchAB_fMRI,730666,53241,42513,1,18,18,B5,glasses,3,7&,2100.1336131,2295.1458073,195.0121942,0,0
3630,7&,1,32,11,21,52,61,42,Abstract_Concrete_6tasks_simseq_2seq_listtask_switchAB_fMRI,730666,53241,42513,1,19,19,A2,glasses,3,7&,2100.1336131,2304.1442943,204.0106812,0,0
2894,3#,1,32,11,22,52,62,42,Abstract_Concrete_6tasks_simseq_2seq_listtask_switchAB_fMRI,730666,53241,42513,1,20,20,B3,tools,6,3#,2100.1336131,2315.145987,215.0123739,0,0
4945,8*,1,31,11,21,51,62,41,Abstract_Concrete_6tasks_simseq_2seq_listtask_switchAB_fMRI,730666,53241,42513,1,21,21,A5,helmet,1,8*,2100.1336131,2325.1439951,225.010382,0,0
2856,3#,1,32,12,21,51,61,41,Abstract_Concrete_6tasks_simseq_2seq_listtask_switchAB_fMRI,730666,53241,42513,1,22,22,B3,tools,6,3#,2100.1336131,2337.1439343,237.0103212,0,0
3493,8*,1,32,11,22,51,62,42,Abstract_Concrete_6tasks_simseq_2seq_listtask_switchAB_fMRI,730666,53241,42513,1,23,23,A5,helmet,1,8*,2100.1336131,2347.1450564,247.0114433,0,0
3615,3#,1,31,12,22,51,61,41,Abstract_Concrete_6tasks_simseq_2seq_listtask_switchAB_fMRI,730666,53241,42513,1,24,24,B3,tools,6,3#,2100.1336131,2358.1439101,258.010297,0,0
4601,4$,0,31,11,22,52,62,42,Abstract_Concrete_6tasks_simseq_2seq_listtask_switchAB_fMRI,730666,53241,42513,1,25,25,A1,tools,6,3#,2100.1336131,2369.1445319,269.0109188,2373.7586647,273.6250516
2588,7&,1,31,11,22,51,61,42,Abstract_Concrete_6tasks_simseq_2seq_listtask_switchAB_fMRI,730666,53241,42513,1,26,26,B5,glasses,3,7&,2100.1336131,2381.1440114,281.0103983,0,0
4957,4$,1,32,12,22,51,62,41,Abstract_Concrete_6tasks_simseq_2seq_listtask_switchAB_fMRI,730666,53241,42513,1,27,27,A4,weapon,5,4$,2100.1336131,2391.1440502,291.0104371,0,0
2627,7&,1,32,12,21,51,61,41,Abstract_Concrete_6tasks_simseq_2seq_listtask_switchAB_fMRI,730666,53241,42513,1,28,28,B5,glasses,3,7&,2100.1336131,2403.144498,303.0108849,0,0
3095,7&,1,31,12,22,51,62,41,Abstract_Concrete_6tasks_simseq_2seq_listtask_switchAB_fMRI,730666,53241,42513,1,29,29,A2,glasses,3,7&,2100.1336131,2413.1447328,313.0111197,0,0
1918,9(,1,31,11,22,52,62,42,Abstract_Concrete_6tasks_simseq_2seq_listtask_switchAB_fMRI,730666,53241,42513,1,30,30,B2,vest,2,9(,2100.1336131,2424.1454271,324.011814,0,0
2583,9(,1,31,11,22,51,62,42,Abstract_Concrete_6tasks_simseq_2seq_listtask_switchAB_fMRI,730666,53241,42513,1,31,31,A3,vest,2,9(,2100.1336131,2433.14604,333.0124269,0,0
3101,3#,0,31,12,22,52,62,42,Abstract_Concrete_6tasks_simseq_2seq_listtask_switchAB_fMRI,730666,53241,42513,1,32,32,B1,weapon,5,4$,2100.1336131,2443.1447896,343.0111765,2446.25699,346.1233769
3934,4$,1,31,11,21,52,61,41,Abstract_Concrete_6tasks_simseq_2seq_listtask_switchAB_fMRI,730666,53241,42513,1,33,33,A4,weapon,5,4$,2100.1336131,2454.1438123,354.0101992,0,0
2717,4$,1,32,11,22,51,62,41,Abstract_Concrete_6tasks_simseq_2seq_listtask_switchAB_fMRI,730666,53241,42513,1,34,34,B1,weapon,5,4$,2100.1336131,2465.1462861,365.012673,0,0
2421,3#,1,32,11,21,52,62,42,Abstract_Concrete_6tasks_simseq_2seq_listtask_switchAB_fMRI,730666,53241,42513,1,35,35,A1,tools,6,3#,2100.1336131,2475.1460613,375.0124482,0,0
5024,8*,1,32,11,21,51,62,42,Abstract_Concrete_6tasks_simseq_2seq_listtask_switchAB_fMRI,730666,53241,42513,1,36,36,B4,helmet,1,8*,2100.1336131,2485.1448801,385.011267,0,0
2751,3#,1,32,12,22,52,62,41,Abstract_Concrete_6tasks_simseq_2seq_listtask_switchAB_fMRI,730666,53241,42513,1,37,37,A1,tools,6,3#,2100.1336131,2498.1447012,398.0110881,0,0
2529,8*,1,31,12,21,52,62,42,Abstract_Concrete_6tasks_simseq_2seq_listtask_switchAB_fMRI,730666,53241,42513,1,38,38,B4,helmet,1,8*,2100.1336131,2508.1470399,408.0134268,0,0
2189,9(,1,31,12,22,52,61,42,Abstract_Concrete_6tasks_simseq_2seq_listtask_switchAB_fMRI,730666,53241,42513,1,39,39,A3,vest,2,9(,2100.1336131,2518.1445869,418.0109738,0,0
2148,9(,1,32,12,22,52,62,41,Abstract_Concrete_6tasks_simseq_2seq_listtask_switchAB_fMRI,730666,53241,42513,1,40,40,B2,vest,2,9(,2100.1336131,2528.1472993,428.0136862,0,0
2888,3#,1,32,11,21,51,62,42,Abstract_Concrete_6tasks_simseq_2seq_listtask_switchAB_fMRI,730666,53241,42513,2,1,41,B3,tools,6,3#,2657.2507755,2665.2610883,8.01031280000007,0,0
2255,8*,1,31,11,21,51,62,41,Abstract_Concrete_6tasks_simseq_2seq_listtask_switchAB_fMRI,730666,53241,42513,2,2,42,A5,helmet,1,8*,2657.2507755,2675.2603089,18.0095333999998,0,0
1632,7&,1,31,12,22,51,62,42,Abstract_Concrete_6tasks_simseq_2seq_listtask_switchAB_fMRI,730666,53241,42513,2,3,43,B5,glasses,3,7&,2657.2507755,2685.2635058,28.0127302999999,0,0
2458,4$,1,31,11,22,52,61,42,Abstract_Concrete_6tasks_simseq_2seq_listtask_switchAB_fMRI,730666,53241,42513,2,4,44,A4,weapon,5,4$,2657.2507755,2694.2629458,37.0121703,0,0
1549,3#,0,32,11,22,52,62,41,Abstract_Concrete_6tasks_simseq_2seq_listtask_switchAB_fMRI,730666,53241,42513,2,5,45,B1,weapon,5,4$,2657.2507755,2704.2627644,47.0119888999998,2705.8325167,48.5817411999997
2524,9(,1,31,11,21,51,61,41,Abstract_Concrete_6tasks_simseq_2seq_listtask_switchAB_fMRI,730666,53241,42513,2,6,46,A3,vest,2,9(,2657.2507755,2713.2636046,56.0128290999996,0,0
4023,9(,1,32,12,22,52,61,41,Abstract_Concrete_6tasks_simseq_2seq_listtask_switchAB_fMRI,730666,53241,42513,2,7,47,B2,vest,2,9(,2657.2507755,2723.2624221,66.0116465999999,0,0
3310,4$,1,31,12,21,51,62,41,Abstract_Concrete_6tasks_simseq_2seq_listtask_switchAB_fMRI,730666,53241,42513,2,8,48,A4,weapon,5,4$,2657.2507755,2735.2646991,78.0139236,0,0
2161,9(,1,31,12,21,51,61,42,Abstract_Concrete_6tasks_simseq_2seq_listtask_switchAB_fMRI,730666,53241,42513,2,9,49,B2,vest,2,9(,2657.2507755,2746.2620469,89.0112713999997,0,0
4175,3#,1,32,12,21,52,61,42,Abstract_Concrete_6tasks_simseq_2seq_listtask_switchAB_fMRI,730666,53241,42513,2,10,50,A1,tools,6,3#,2657.2507755,2756.2601237,99.0093481999997,0,0
1549,4$,1,31,12,21,51,62,41,Abstract_Concrete_6tasks_simseq_2seq_listtask_switchAB_fMRI,730666,53241,42513,2,11,51,B1,weapon,5,4$,2657.2507755,2768.2632693,111.0124938,0,0
4179,8*,1,31,11,21,51,61,42,Abstract_Concrete_6tasks_simseq_2seq_listtask_switchAB_fMRI,730666,53241,42513,2,12,52,A5,helmet,1,8*,2657.2507755,2777.2622289,120.0114534,0,0
1542,4$,0,32,11,22,52,61,42,Abstract_Concrete_6tasks_simseq_2seq_listtask_switchAB_fMRI,730666,53241,42513,2,13,53,B4,helmet,1,8*,2657.2507755,2789.2641778,132.0134023,2790.8187026,133.5679271
4071,8*,1,31,11,21,51,61,42,Abstract_Concrete_6tasks_simseq_2seq_listtask_switchAB_fMRI,730666,53241,42513,2,14,54,A5,helmet,1,8*,2657.2507755,2798.2615425,141.010767,0,0
2496,8*,1,31,12,22,51,61,41,Abstract_Concrete_6tasks_simseq_2seq_listtask_switchAB_fMRI,730666,53241,42513,2,15,55,B4,helmet,1,8*,2657.2507755,2810.2635382,153.0127627,0,0
4934,7&,1,31,11,22,52,62,41,Abstract_Concrete_6tasks_simseq_2seq_listtask_switchAB_fMRI,730666,53241,42513,2,16,56,A2,glasses,3,7&,2657.2507755,2820.26233,163.0115545,0,0
2567,8*,1,31,11,21,52,62,41,Abstract_Concrete_6tasks_simseq_2seq_listtask_switchAB_fMRI,730666,53241,42513,2,17,57,B4,helmet,1,8*,2657.2507755,2832.2627318,175.0119563,0,0
3660,7&,1,32,12,22,52,62,41,Abstract_Concrete_6tasks_simseq_2seq_listtask_switchAB_fMRI,730666,53241,42513,2,18,58,A2,glasses,3,7&,2657.2507755,2842.2625499,185.0117744,0,0
2154,7&,1,32,11,21,51,62,41,Abstract_Concrete_6tasks_simseq_2seq_listtask_switchAB_fMRI,730666,53241,42513,2,19,59,B5,glasses,3,7&,2657.2507755,2853.2624453,196.0116698,0,0
3349,7&,1,32,12,21,52,61,42,Abstract_Concrete_6tasks_simseq_2seq_listtask_switchAB_fMRI,730666,53241,42513,2,20,60,A2,glasses,3,7&,2657.2507755,2863.2628846,206.0121091,0,0
1371,7&,0,31,12,21,52,61,42,Abstract_Concrete_6tasks_simseq_2seq_listtask_switchAB_fMRI,730666,53241,42513,2,21,61,B4,helmet,1,8*,2657.2507755,2874.2623901,217.0116146,2875.6433622,218.3925867
4150,3#,1,32,12,21,52,62,41,Abstract_Concrete_6tasks_simseq_2seq_listtask_switchAB_fMRI,730666,53241,42513,2,22,62,A1,tools,6,3#,2657.2507755,2883.2601307,226.0093552,0,0
4051,3#,1,31,11,21,52,61,41,Abstract_Concrete_6tasks_simseq_2seq_listtask_switchAB_fMRI,730666,53241,42513,2,23,63,B3,tools,6,3#,2657.2507755,2895.2628291,238.0120536,0,0
6892,8*,0,31,11,21,51,62,41,Abstract_Concrete_6tasks_simseq_2seq_listtask_switchAB_fMRI,730666,53241,42513,2,24,64,A4,weapon,5,4$,2657.2507755,2907.2638917,250.0131162,2914.1695768,256.9188013
2422,4$,1,31,11,21,52,61,42,Abstract_Concrete_6tasks_simseq_2seq_listtask_switchAB_fMRI,730666,53241,42513,2,25,65,B1,weapon,5,4$,2657.2507755,2921.2610567,264.0102812,0,0
2588,8*,1,32,12,21,52,62,42,Abstract_Concrete_6tasks_simseq_2seq_listtask_switchAB_fMRI,730666,53241,42513,2,26,66,A5,helmet,1,8*,2657.2507755,2931.261213,274.0104375,0,0
1737,9(,1,32,11,21,52,62,41,Abstract_Concrete_6tasks_simseq_2seq_listtask_switchAB_fMRI,730666,53241,42513,2,27,67,B2,vest,2,9(,2657.2507755,2941.2619179,284.0111424,0,0
3149,3#,1,31,11,21,52,61,42,Abstract_Concrete_6tasks_simseq_2seq_listtask_switchAB_fMRI,730666,53241,42513,2,28,68,A1,tools,6,3#,2657.2507755,2950.2636139,293.0128384,0,0
3335,3#,1,31,11,21,51,62,41,Abstract_Concrete_6tasks_simseq_2seq_listtask_switchAB_fMRI,730666,53241,42513,2,29,69,B3,tools,6,3#,2657.2507755,2961.2638769,304.0131014,0,0
2737,4$,0,31,12,21,52,62,42,Abstract_Concrete_6tasks_simseq_2seq_listtask_switchAB_fMRI,730666,53241,42513,2,30,70,A1,tools,6,3#,2657.2507755,2972.2627754,315.0119999,2975.0149531,317.7641776
3813,9(,1,32,12,21,52,62,41,Abstract_Concrete_6tasks_simseq_2seq_listtask_switchAB_fMRI,730666,53241,42513,2,31,71,B2,vest,2,9(,2657.2507755,2982.2612789,325.0105034,0,0
3114,4$,1,31,11,21,52,62,41,Abstract_Concrete_6tasks_simseq_2seq_listtask_switchAB_fMRI,730666,53241,42513,2,32,72,A4,weapon,5,4$,2657.2507755,2993.2632942,336.0125187,0,0
2460,4$,1,32,12,21,52,61,41,Abstract_Concrete_6tasks_simseq_2seq_listtask_switchAB_fMRI,730666,53241,42513,2,33,73,B1,weapon,5,4$,2657.2507755,3004.2626948,347.0119193,0,0
2026,9(,1,32,12,22,51,62,42,Abstract_Concrete_6tasks_simseq_2seq_listtask_switchAB_fMRI,730666,53241,42513,2,34,74,A3,vest,2,9(,2657.2507755,3014.2618239,357.0110484,0,0
2554,7&,1,32,12,22,51,62,42,Abstract_Concrete_6tasks_simseq_2seq_listtask_switchAB_fMRI,730666,53241,42513,2,35,75,B5,glasses,3,7&,2657.2507755,3024.2630701,367.0122946,0,0
3137,7&,1,31,11,21,52,62,42,Abstract_Concrete_6tasks_simseq_2seq_listtask_switchAB_fMRI,730666,53241,42513,2,36,76,A2,glasses,3,7&,2657.2507755,3034.2618138,377.0110383,0,0
2244,7&,1,31,11,22,51,61,41,Abstract_Concrete_6tasks_simseq_2seq_listtask_switchAB_fMRI,730666,53241,42513,2,37,77,B5,glasses,3,7&,2657.2507755,3045.2638652,388.0130897,0,0
3289,9(,1,31,12,21,51,62,41,Abstract_Concrete_6tasks_simseq_2seq_listtask_switchAB_fMRI,730666,53241,42513,2,38,78,A3,vest,2,9(,2657.2507755,3055.263435,398.0126595,0,0
4160,3#,1,32,12,22,52,61,41,Abstract_Concrete_6tasks_simseq_2seq_listtask_switchAB_fMRI,730666,53241,42513,2,39,79,B3,tools,6,3#,2657.2507755,3066.2609567,409.0101812,0,0
2445,9(,1,31,11,21,52,61,42,Abstract_Concrete_6tasks_simseq_2seq_listtask_switchAB_fMRI,730666,53241,42513,2,40,80,A3,vest,2,9(,2657.2507755,3078.2603145,421.009539,0,0
2858,4$,1,32,11,22,51,61,41,Abstract_Concrete_6tasks_simseq_2seq_listtask_switchAB_fMRI,730666,53241,42513,3,1,81,B1,weapon,5,4$,3143.1197359,3151.129665,8.00992910000014,0,0
2133,9(,1,32,11,21,51,61,41,Abstract_Concrete_6tasks_simseq_2seq_listtask_switchAB_fMRI,730666,53241,42513,3,2,82,A3,vest,2,9(,3143.1197359,3161.129754,18.0100181000003,0,0
2526,3#,0,32,12,21,51,62,42,Abstract_Concrete_6tasks_simseq_2seq_listtask_switchAB_fMRI,730666,53241,42513,3,3,83,B4,helmet,1,8*,3143.1197359,3171.133441,28.0137051000002,3173.6759738,30.5562379000003
2411,9(,1,31,12,22,52,61,42,Abstract_Concrete_6tasks_simseq_2seq_listtask_switchAB_fMRI,730666,53241,42513,3,4,84,A3,vest,2,9(,3143.1197359,3181.132719,38.0129831000004,0,0
3853,3#,1,31,11,22,51,62,42,Abstract_Concrete_6tasks_simseq_2seq_listtask_switchAB_fMRI,730666,53241,42513,3,5,85,B3,tools,6,3#,3143.1197359,3191.1327381,48.0130022000003,0,0
2101,4$,1,32,12,21,51,62,41,Abstract_Concrete_6tasks_simseq_2seq_listtask_switchAB_fMRI,730666,53241,42513,3,6,86,A4,weapon,5,4$,3143.1197359,3202.1321601,59.0124242000002,0,0
2855,9(,1,32,11,22,52,61,41,Abstract_Concrete_6tasks_simseq_2seq_listtask_switchAB_fMRI,730666,53241,42513,3,7,87,B2,vest,2,9(,3143.1197359,3212.1308175,69.0110816000001,0,0
1983,4$,1,31,11,21,51,61,41,Abstract_Concrete_6tasks_simseq_2seq_listtask_switchAB_fMRI,730666,53241,42513,3,8,88,A4,weapon,5,4$,3143.1197359,3222.1311125,79.0113766000004,0,0
2117,7&,1,32,12,21,51,62,41,Abstract_Concrete_6tasks_simseq_2seq_listtask_switchAB_fMRI,730666,53241,42513,3,9,89,B5,glasses,3,7&,3143.1197359,3231.1332117,88.0134758000004,0,0
2932,4$,1,31,12,21,51,62,41,Abstract_Concrete_6tasks_simseq_2seq_listtask_switchAB_fMRI,730666,53241,42513,3,10,90,A4,weapon,5,4$,3143.1197359,3241.1310169,98.0112810000001,0,0
4209,7&,1,31,11,22,51,61,42,Abstract_Concrete_6tasks_simseq_2seq_listtask_switchAB_fMRI,730666,53241,42513,3,11,91,B5,glasses,3,7&,3143.1197359,3251.1315647,108.0118288,0,0
3086,7&,1,32,12,21,51,62,41,Abstract_Concrete_6tasks_simseq_2seq_listtask_switchAB_fMRI,730666,53241,42513,3,12,92,A2,glasses,3,7&,3143.1197359,3263.1319946,120.0122587,0,0
4928,4$,1,31,12,22,52,61,42,Abstract_Concrete_6tasks_simseq_2seq_listtask_switchAB_fMRI,730666,53241,42513,3,13,93,B1,weapon,5,4$,3143.1197359,3274.1318558,131.0121199,0,0
3069,9(,1,31,11,21,52,62,42,Abstract_Concrete_6tasks_simseq_2seq_listtask_switchAB_fMRI,730666,53241,42513,3,14,94,A3,vest,2,9(,3143.1197359,3286.1311791,143.0114432,0,0
5281,3#,1,32,12,22,52,61,42,Abstract_Concrete_6tasks_simseq_2seq_listtask_switchAB_fMRI,730666,53241,42513,3,15,95,B3,tools,6,3#,3143.1197359,3297.1323495,154.0126136,0,0
2987,4$,1,31,11,22,52,62,41,Abstract_Concrete_6tasks_simseq_2seq_listtask_switchAB_fMRI,730666,53241,42513,3,16,96,A4,weapon,5,4$,3143.1197359,3310.1308475,167.0111116,0,0
2823,8*,1,32,12,21,52,61,42,Abstract_Concrete_6tasks_simseq_2seq_listtask_switchAB_fMRI,730666,53241,42513,3,17,97,B4,helmet,1,8*,3143.1197359,3320.1325639,177.012828,0,0
3585,3#,1,31,12,21,52,61,41,Abstract_Concrete_6tasks_simseq_2seq_listtask_switchAB_fMRI,730666,53241,42513,3,18,98,A1,tools,6,3#,3143.1197359,3330.1305474,187.0108115,0,0
2452,8*,1,31,11,22,51,62,42,Abstract_Concrete_6tasks_simseq_2seq_listtask_switchAB_fMRI,730666,53241,42513,3,19,99,B4,helmet,1,8*,3143.1197359,3341.1300433,198.0103074,0,0
3032,8*,1,31,12,21,52,62,42,Abstract_Concrete_6tasks_simseq_2seq_listtask_switchAB_fMRI,730666,53241,42513,3,20,100,A5,helmet,1,8*,3143.1197359,3351.1326654,208.0129295,0,0
2292,9(,1,31,12,21,52,61,42,Abstract_Concrete_6tasks_simseq_2seq_listtask_switchAB_fMRI,730666,53241,42513,3,21,101,B2,vest,2,9(,3143.1197359,3362.1322417,219.0125058,0,0
4058,9(,1,32,11,22,52,62,42,Abstract_Concrete_6tasks_simseq_2seq_listtask_switchAB_fMRI,730666,53241,42513,3,22,102,A3,vest,2,9(,3143.1197359,3372.1323333,229.0125974,0,0
4701,3#,1,31,11,21,52,61,42,Abstract_Concrete_6tasks_simseq_2seq_listtask_switchAB_fMRI,730666,53241,42513,3,23,103,B3,tools,6,3#,3143.1197359,3384.1306806,241.0109447,0,0
2341,8*,1,31,11,21,51,61,41,Abstract_Concrete_6tasks_simseq_2seq_listtask_switchAB_fMRI,730666,53241,42513,3,24,104,A5,helmet,1,8*,3143.1197359,3396.1295654,253.0098295,0,0
2623,7&,1,31,12,21,52,62,41,Abstract_Concrete_6tasks_simseq_2seq_listtask_switchAB_fMRI,730666,53241,42513,3,25,105,B5,glasses,3,7&,3143.1197359,3406.1312758,263.0115399,0,0
3918,7&,1,31,11,21,52,61,41,Abstract_Concrete_6tasks_simseq_2seq_listtask_switchAB_fMRI,730666,53241,42513,3,26,106,A2,glasses,3,7&,3143.1197359,3416.1297008,273.0099649,0,0
2332,9(,1,32,11,22,51,61,42,Abstract_Concrete_6tasks_simseq_2seq_listtask_switchAB_fMRI,730666,53241,42513,3,27,107,B2,vest,2,9(,3143.1197359,3427.1310516,284.0113157,0,0
2685,7&,1,32,11,21,52,61,42,Abstract_Concrete_6tasks_simseq_2seq_listtask_switchAB_fMRI,730666,53241,42513,3,28,108,A2,glasses,3,7&,3143.1197359,3437.1325345,294.0127986,0,0
3604,4$,0,32,12,22,52,62,41,Abstract_Concrete_6tasks_simseq_2seq_listtask_switchAB_fMRI,730666,53241,42513,3,29,109,B3,tools,6,3#,3143.1197359,3447.1322397,304.0125038,3450.7504938,307.6307579
3361,8*,1,32,12,22,52,61,42,Abstract_Concrete_6tasks_simseq_2seq_listtask_switchAB_fMRI,730666,53241,42513,3,30,110,A5,helmet,1,8*,3143.1197359,3458.1303702,315.0106343,0,0
3282,8*,1,32,11,22,51,61,41,Abstract_Concrete_6tasks_simseq_2seq_listtask_switchAB_fMRI,730666,53241,42513,3,31,111,B4,helmet,1,8*,3143.1197359,3469.130541,326.0108051,0,0
2832,3#,1,32,11,22,52,62,41,Abstract_Concrete_6tasks_simseq_2seq_listtask_switchAB_fMRI,730666,53241,42513,3,32,112,A1,tools,6,3#,3143.1197359,3480.1310298,337.0112939,0,0
1287,4$,1,31,12,21,52,61,41,Abstract_Concrete_6tasks_simseq_2seq_listtask_switchAB_fMRI,730666,53241,42513,3,33,113,B1,weapon,5,4$,3143.1197359,3490.131098,347.0113621,0,0
3131,8*,1,31,11,22,52,61,42,Abstract_Concrete_6tasks_simseq_2seq_listtask_switchAB_fMRI,730666,53241,42513,3,34,114,A5,helmet,1,8*,3143.1197359,3499.1314897,356.0117538,0,0
4816,7&,1,32,12,22,51,61,42,Abstract_Concrete_6tasks_simseq_2seq_listtask_switchAB_fMRI,730666,53241,42513,3,35,115,B5,glasses,3,7&,3143.1197359,3510.1312726,367.0115367,0,0
3440,3#,1,31,12,22,52,62,41,Abstract_Concrete_6tasks_simseq_2seq_listtask_switchAB_fMRI,730666,53241,42513,3,36,116,A1,tools,6,3#,3143.1197359,3522.129839,379.0101031,0,0
2898,9(,1,32,11,21,52,61,42,Abstract_Concrete_6tasks_simseq_2seq_listtask_switchAB_fMRI,730666,53241,42513,3,37,117,B2,vest,2,9(,3143.1197359,3533.1331554,390.0134195,0,0
3041,7&,1,32,12,21,51,61,41,Abstract_Concrete_6tasks_simseq_2seq_listtask_switchAB_fMRI,730666,53241,42513,3,38,118,A2,glasses,3,7&,3143.1197359,3543.1300974,400.0103615,0,0
3395,4$,1,32,11,21,51,61,41,Abstract_Concrete_6tasks_simseq_2seq_listtask_switchAB_fMRI,730666,53241,42513,3,39,119,B1,weapon,5,4$,3143.1197359,3554.130559,411.0108231,0,0
2634,3#,1,32,11,22,52,61,42,Abstract_Concrete_6tasks_simseq_2seq_listtask_switchAB_fMRI,730666,53241,42513,3,40,120,A1,tools,6,3#,3143.1197359,3565.1311962,422.0114603,0,0
2768,9(,1,31,12,22,52,62,41,Abstract_Concrete_6tasks_simseq_2seq_listtask_switchAB_fMRI,730666,53241,42513,4,1,121,A3,vest,2,9(,3745.656847,3753.6667754,8.00992839999981,0,0
1994,3#,1,32,12,21,52,62,42,Abstract_Concrete_6tasks_simseq_2seq_listtask_switchAB_fMRI,730666,53241,42513,4,2,122,B3,tools,6,3#,3745.656847,3763.6667382,18.0098911999999,0,0
2985,8*,1,31,12,22,52,61,41,Abstract_Concrete_6tasks_simseq_2seq_listtask_switchAB_fMRI,730666,53241,42513,4,3,123,A5,helmet,1,8*,3745.656847,3773.6687032,28.0118561999998,0,0
1889,7&,1,32,12,21,51,62,41,Abstract_Concrete_6tasks_simseq_2seq_listtask_switchAB_fMRI,730666,53241,42513,4,4,124,B5,glasses,3,7&,3745.656847,3783.6686917,38.0118447,0,0
3324,3#,1,31,11,22,51,62,41,Abstract_Concrete_6tasks_simseq_2seq_listtask_switchAB_fMRI,730666,53241,42513,4,5,125,A1,tools,6,3#,3745.656847,3792.6675909,47.0107438999999,0,0
1875,9(,1,31,11,21,52,62,41,Abstract_Concrete_6tasks_simseq_2seq_listtask_switchAB_fMRI,730666,53241,42513,4,6,126,B2,vest,2,9(,3745.656847,3803.6700723,58.0132252999997,0,0
3161,7&,1,31,12,22,51,61,42,Abstract_Concrete_6tasks_simseq_2seq_listtask_switchAB_fMRI,730666,53241,42513,4,7,127,A2,glasses,3,7&,3745.656847,3812.668343,67.0114959999996,0,0
3385,3#,1,31,12,21,51,61,41,Abstract_Concrete_6tasks_simseq_2seq_listtask_switchAB_fMRI,730666,53241,42513,4,8,128,B3,tools,6,3#,3745.656847,3823.6680905,78.0112434999996,0,0
2773,8*,1,31,11,21,52,61,42,Abstract_Concrete_6tasks_simseq_2seq_listtask_switchAB_fMRI,730666,53241,42513,4,9,129,A5,helmet,1,8*,3745.656847,3834.6701098,89.0132627999997,0,0
2083,8*,1,31,12,21,51,62,41,Abstract_Concrete_6tasks_simseq_2seq_listtask_switchAB_fMRI,730666,53241,42513,4,10,130,B4,helmet,1,8*,3745.656847,3844.6677209,99.0108738999998,0,0
1956,7&,1,32,12,21,52,61,42,Abstract_Concrete_6tasks_simseq_2seq_listtask_switchAB_fMRI,730666,53241,42513,4,11,131,A2,glasses,3,7&,3745.656847,3854.6680799,109.0112329,0,0
2119,4$,1,31,12,21,52,62,42,Abstract_Concrete_6tasks_simseq_2seq_listtask_switchAB_fMRI,730666,53241,42513,4,12,132,B1,weapon,5,4$,3745.656847,3863.6688711,118.0120241,0,0
2268,9(,1,31,11,22,52,61,42,Abstract_Concrete_6tasks_simseq_2seq_listtask_switchAB_fMRI,730666,53241,42513,4,13,133,A3,vest,2,9(,3745.656847,3873.6682666,128.0114196,0,0
2440,9(,1,32,11,22,52,62,42,Abstract_Concrete_6tasks_simseq_2seq_listtask_switchAB_fMRI,730666,53241,42513,4,14,134,B2,vest,2,9(,3745.656847,3883.6688104,138.0119634,0,0
2211,3#,1,32,11,22,52,62,42,Abstract_Concrete_6tasks_simseq_2seq_listtask_switchAB_fMRI,730666,53241,42513,4,15,135,A1,tools,6,3#,3745.656847,3893.6683103,148.0114633,0,0
2354,8*,1,32,12,21,51,62,41,Abstract_Concrete_6tasks_simseq_2seq_listtask_switchAB_fMRI,730666,53241,42513,4,16,136,B4,helmet,1,8*,3745.656847,3903.6687506,158.0119036,0,0
2669,8*,1,31,12,22,51,62,41,Abstract_Concrete_6tasks_simseq_2seq_listtask_switchAB_fMRI,730666,53241,42513,4,17,137,A5,helmet,1,8*,3745.656847,3913.6678162,168.0109692,0,0
1726,9(,1,32,11,22,52,61,41,Abstract_Concrete_6tasks_simseq_2seq_listtask_switchAB_fMRI,730666,53241,42513,4,18,138,B2,vest,2,9(,3745.656847,3923.6683329,178.0114859,0,0
2005,4$,1,31,12,21,51,61,41,Abstract_Concrete_6tasks_simseq_2seq_listtask_switchAB_fMRI,730666,53241,42513,4,19,139,A4,weapon,5,4$,3745.656847,3932.6689585,187.0121115,0,0
3107,8*,1,31,12,21,52,62,41,Abstract_Concrete_6tasks_simseq_2seq_listtask_switchAB_fMRI,730666,53241,42513,4,20,140,B4,helmet,1,8*,3745.656847,3942.6682706,197.0114236,0,0
2935,3#,1,32,12,21,52,61,42,Abstract_Concrete_6tasks_simseq_2seq_listtask_switchAB_fMRI,730666,53241,42513,4,21,141,A1,tools,6,3#,3745.656847,3953.6698505,208.0130035,0,0
6006,7&,1,32,11,22,52,62,42,Abstract_Concrete_6tasks_simseq_2seq_listtask_switchAB_fMRI,730666,53241,42513,4,22,142,B5,glasses,3,7&,3745.656847,3963.6682169,218.0113699,0,0
2819,4$,1,31,11,22,51,61,42,Abstract_Concrete_6tasks_simseq_2seq_listtask_switchAB_fMRI,730666,53241,42513,4,23,143,A4,weapon,5,4$,3745.656847,3977.669763,232.012916,0,0
2518,4$,1,31,12,21,52,61,42,Abstract_Concrete_6tasks_simseq_2seq_listtask_switchAB_fMRI,730666,53241,42513,4,24,144,B1,weapon,5,4$,3745.656847,3987.6680018,242.0111548,0,0
2217,8*,1,32,11,21,51,61,41,Abstract_Concrete_6tasks_simseq_2seq_listtask_switchAB_fMRI,730666,53241,42513,4,25,145,A5,helmet,1,8*,3745.656847,3997.6694531,252.0126061,0,0
1788,7&,1,32,11,22,52,62,42,Abstract_Concrete_6tasks_simseq_2seq_listtask_switchAB_fMRI,730666,53241,42513,4,26,146,B5,glasses,3,7&,3745.656847,4007.6674244,262.0105774,0,0
3465,9(,1,31,12,22,52,61,42,Abstract_Concrete_6tasks_simseq_2seq_listtask_switchAB_fMRI,730666,53241,42513,4,27,147,A3,vest,2,9(,3745.656847,4016.6686274,271.0117804,0,0
2127,9(,1,32,11,21,51,61,41,Abstract_Concrete_6tasks_simseq_2seq_listtask_switchAB_fMRI,730666,53241,42513,4,28,148,B2,vest,2,9(,3745.656847,4027.668381,282.011534,0,0
1684,9(,1,31,12,22,51,62,41,Abstract_Concrete_6tasks_simseq_2seq_listtask_switchAB_fMRI,730666,53241,42513,4,29,149,A3,vest,2,9(,3745.656847,4037.6680267,292.0111797,0,0
2144,8*,1,32,12,22,51,62,42,Abstract_Concrete_6tasks_simseq_2seq_listtask_switchAB_fMRI,730666,53241,42513,4,30,150,B4,helmet,1,8*,3745.656847,4046.6682817,301.0114347,0,0
2684,7&,1,31,12,22,52,61,42,Abstract_Concrete_6tasks_simseq_2seq_listtask_switchAB_fMRI,730666,53241,42513,4,31,151,A2,glasses,3,7&,3745.656847,4056.668756,311.011909,0,0
2108,4$,1,32,11,22,51,62,41,Abstract_Concrete_6tasks_simseq_2seq_listtask_switchAB_fMRI,730666,53241,42513,4,32,152,B1,weapon,5,4$,3745.656847,4066.6677523,321.0109053,0,0
2896,4$,1,31,12,22,52,61,42,Abstract_Concrete_6tasks_simseq_2seq_listtask_switchAB_fMRI,730666,53241,42513,4,33,153,A4,weapon,5,4$,3745.656847,4076.6691665,331.0123195,0,0
3449,3#,1,32,11,21,52,61,41,Abstract_Concrete_6tasks_simseq_2seq_listtask_switchAB_fMRI,730666,53241,42513,4,34,154,B3,tools,6,3#,3745.656847,4086.6671156,341.0102686,0,0
3059,7&,1,32,11,22,52,61,42,Abstract_Concrete_6tasks_simseq_2seq_listtask_switchAB_fMRI,730666,53241,42513,4,35,155,A2,glasses,3,7&,3745.656847,4097.6697636,352.0129166,0,0
2108,7&,1,31,12,22,51,62,41,Abstract_Concrete_6tasks_simseq_2seq_listtask_switchAB_fMRI,730666,53241,42513,4,36,156,B5,glasses,3,7&,3745.656847,4108.6701738,363.0133268,0,0
1532,4$,1,31,12,22,51,62,41,Abstract_Concrete_6tasks_simseq_2seq_listtask_switchAB_fMRI,730666,53241,42513,4,37,157,A4,weapon,5,4$,3745.656847,4118.6684977,373.0116507,0,0
2568,3#,1,31,12,21,51,62,42,Abstract_Concrete_6tasks_simseq_2seq_listtask_switchAB_fMRI,730666,53241,42513,4,38,158,B3,tools,6,3#,3745.656847,4127.6702263,382.0133793,0,0
1878,3#,1,32,12,21,52,61,42,Abstract_Concrete_6tasks_simseq_2seq_listtask_switchAB_fMRI,730666,53241,42513,4,39,159,A1,tools,6,3#,3745.656847,4137.6683448,392.0114978,0,0
1124,4$,1,31,12,21,52,61,41,Abstract_Concrete_6tasks_simseq_2seq_listtask_switchAB_fMRI,730666,53241,42513,4,40,160,B1,weapon,5,4$,3745.656847,4146.6673707,401.0105237,0,0
4470,9(,1,31,12,21,52,62,41,Abstract_Concrete_6tasks_simseq_2seq_listtask_switchAB_fMRI,730666,53241,42513,5,1,161,A3,vest,2,9(,4195.4640263,4203.4752803,8.01125400000001,0,0
2680,3#,1,31,11,22,52,61,41,Abstract_Concrete_6tasks_simseq_2seq_listtask_switchAB_fMRI,730666,53241,42513,5,2,162,B3,tools,6,3#,4195.4640263,4215.473747,20.0097206999999,0,0
2543,4$,1,31,11,22,52,62,42,Abstract_Concrete_6tasks_simseq_2seq_listtask_switchAB_fMRI,730666,53241,42513,5,3,163,A4,weapon,5,4$,4195.4640263,4225.4762331,30.0122068000001,0,0
2133,8*,1,32,11,21,52,62,42,Abstract_Concrete_6tasks_simseq_2seq_listtask_switchAB_fMRI,730666,53241,42513,5,4,164,B4,helmet,1,8*,4195.4640263,4235.475087,40.0110606999997,0,0
2775,7&,1,32,11,21,52,61,42,Abstract_Concrete_6tasks_simseq_2seq_listtask_switchAB_fMRI,730666,53241,42513,5,5,165,A2,glasses,3,7&,4195.4640263,4245.4756898,50.0116634999995,0,0
1328,9(,1,31,12,22,52,62,41,Abstract_Concrete_6tasks_simseq_2seq_listtask_switchAB_fMRI,730666,53241,42513,5,6,166,B2,vest,2,9(,4195.4640263,4255.4760161,60.0119898000003,0,0
2252,3#,1,31,12,21,51,61,42,Abstract_Concrete_6tasks_simseq_2seq_listtask_switchAB_fMRI,730666,53241,42513,5,7,167,A1,tools,6,3#,4195.4640263,4264.4779282,69.0139018999998,0,0
1954,8*,1,31,11,21,52,61,42,Abstract_Concrete_6tasks_simseq_2seq_listtask_switchAB_fMRI,730666,53241,42513,5,8,168,B4,helmet,1,8*,4195.4640263,4274.4757192,79.0116928999996,0,0
2762,3#,1,32,12,22,51,61,42,Abstract_Concrete_6tasks_simseq_2seq_listtask_switchAB_fMRI,730666,53241,42513,5,9,169,A1,tools,6,3#,4195.4640263,4283.4755233,88.0114969999995,0,0
1838,9(,1,32,11,21,52,62,41,Abstract_Concrete_6tasks_simseq_2seq_listtask_switchAB_fMRI,730666,53241,42513,5,10,170,B2,vest,2,9(,4195.4640263,4293.4759999,98.0119735999997,0,0
2910,9(,1,32,11,22,52,61,41,Abstract_Concrete_6tasks_simseq_2seq_listtask_switchAB_fMRI,730666,53241,42513,5,11,171,A3,vest,2,9(,4195.4640263,4302.4744821,107.0104558,0,0
3353,7&,1,31,11,21,52,62,41,Abstract_Concrete_6tasks_simseq_2seq_listtask_switchAB_fMRI,730666,53241,42513,5,12,172,B5,glasses,3,7&,4195.4640263,4312.4760842,117.012057899999,0,0
2738,4$,1,31,12,21,52,61,41,Abstract_Concrete_6tasks_simseq_2seq_listtask_switchAB_fMRI,730666,53241,42513,5,13,173,A4,weapon,5,4$,4195.4640263,4323.4781043,128.014078,0,0
1355,9(,1,32,12,22,52,61,41,Abstract_Concrete_6tasks_simseq_2seq_listtask_switchAB_fMRI,730666,53241,42513,5,14,174,B2,vest,2,9(,4195.4640263,4333.4781533,138.014126999999,0,0
810,7&,1,31,11,22,51,62,42,Abstract_Concrete_6tasks_simseq_2seq_listtask_switchAB_fMRI,730666,53241,42513,5,15,175,A2,glasses,3,7&,4195.4640263,4342.477489,147.0134627,0,0
2313,4$,1,32,11,21,52,61,42,Abstract_Concrete_6tasks_simseq_2seq_listtask_switchAB_fMRI,730666,53241,42513,5,16,176,B1,weapon,5,4$,4195.4640263,4350.4747129,155.0106866,0,0
3179,4$,1,32,11,22,51,61,42,Abstract_Concrete_6tasks_simseq_2seq_listtask_switchAB_fMRI,730666,53241,42513,5,17,177,A4,weapon,5,4$,4195.4640263,4360.4760507,165.0120244,0,0
2001,4$,1,32,12,21,52,62,41,Abstract_Concrete_6tasks_simseq_2seq_listtask_switchAB_fMRI,730666,53241,42513,5,18,178,B1,weapon,5,4$,4195.4640263,4371.4764805,176.0124542,0,0
3584,9(,1,31,11,21,51,62,42,Abstract_Concrete_6tasks_simseq_2seq_listtask_switchAB_fMRI,730666,53241,42513,5,19,179,A3,vest,2,9(,4195.4640263,4381.4778745,186.0138482,0,0
1800,8*,1,32,12,22,51,62,42,Abstract_Concrete_6tasks_simseq_2seq_listtask_switchAB_fMRI,730666,53241,42513,5,20,180,B4,helmet,1,8*,4195.4640263,4392.4743488,197.0103225,0,0
3231,9(,1,31,11,21,52,62,42,Abstract_Concrete_6tasks_simseq_2seq_listtask_switchAB_fMRI,730666,53241,42513,5,21,181,A3,vest,2,9(,4195.4640263,4401.4771458,206.013119499999,0,0
3608,3#,1,31,11,22,52,61,41,Abstract_Concrete_6tasks_simseq_2seq_listtask_switchAB_fMRI,730666,53241,42513,5,22,182,B3,tools,6,3#,4195.4640263,4412.4766035,217.0125772,0,0
1620,3#,1,31,12,22,51,61,42,Abstract_Concrete_6tasks_simseq_2seq_listtask_switchAB_fMRI,730666,53241,42513,5,23,183,A1,tools,6,3#,4195.4640263,4423.4769876,228.0129613,0,0
3343,3#,1,32,12,22,51,61,42,Abstract_Concrete_6tasks_simseq_2seq_listtask_switchAB_fMRI,730666,53241,42513,5,24,184,B3,tools,6,3#,4195.4640263,4432.4755869,237.0115606,0,0
2525,8*,1,32,12,21,51,62,42,Abstract_Concrete_6tasks_simseq_2seq_listtask_switchAB_fMRI,730666,53241,42513,5,25,185,A5,helmet,1,8*,4195.4640263,4443.4762708,248.0122445,0,0
1634,7&,1,31,12,21,52,61,42,Abstract_Concrete_6tasks_simseq_2seq_listtask_switchAB_fMRI,730666,53241,42513,5,26,186,B5,glasses,3,7&,4195.4640263,4453.4752878,258.0112615,0,0
2768,8*,1,32,11,22,51,62,41,Abstract_Concrete_6tasks_simseq_2seq_listtask_switchAB_fMRI,730666,53241,42513,5,27,187,A5,helmet,1,8*,4195.4640263,4462.4744379,267.0104116,0,0
5488,4$,1,31,11,22,51,61,41,Abstract_Concrete_6tasks_simseq_2seq_listtask_switchAB_fMRI,730666,53241,42513,5,28,188,B1,weapon,5,4$,4195.4640263,4472.474512,277.0104857,0,0
2778,4$,1,32,12,21,51,62,42,Abstract_Concrete_6tasks_simseq_2seq_listtask_switchAB_fMRI,730666,53241,42513,5,29,189,A4,weapon,5,4$,4195.4640263,4485.4751418,290.0111155,0,0
2225,8*,1,32,12,21,51,61,42,Abstract_Concrete_6tasks_simseq_2seq_listtask_switchAB_fMRI,730666,53241,42513,5,30,190,B4,helmet,1,8*,4195.4640263,4495.4754441,300.011417799999,0,0
2903,7&,1,32,12,22,52,61,42,Abstract_Concrete_6tasks_simseq_2seq_listtask_switchAB_fMRI,730666,53241,42513,5,31,191,A2,glasses,3,7&,4195.4640263,4505.4759636,310.0119373,0,0
2995,7&,1,32,12,21,52,62,41,Abstract_Concrete_6tasks_simseq_2seq_listtask_switchAB_fMRI,730666,53241,42513,5,32,192,B5,glasses,3,7&,4195.4640263,4515.4742491,320.0102228,0,0
4058,8*,1,31,11,22,52,62,41,Abstract_Concrete_6tasks_simseq_2seq_listtask_switchAB_fMRI,730666,53241,42513,5,33,193,A5,helmet,1,8*,4195.4640263,4526.4759762,331.0119499,0,0
2196,7&,1,31,11,21,51,61,42,Abstract_Concrete_6tasks_simseq_2seq_listtask_switchAB_fMRI,730666,53241,42513,5,34,194,B5,glasses,3,7&,4195.4640263,4538.4759413,343.011915,0,0
2969,3#,1,32,12,22,52,61,41,Abstract_Concrete_6tasks_simseq_2seq_listtask_switchAB_fMRI,730666,53241,42513,5,35,195,A1,tools,6,3#,4195.4640263,4548.4748543,353.010827999999,0,0
3357,3#,1,32,12,22,51,61,42,Abstract_Concrete_6tasks_simseq_2seq_listtask_switchAB_fMRI,730666,53241,42513,5,36,196,B3,tools,6,3#,4195.4640263,4558.4749009,363.0108746,0,0
2261,7&,1,32,12,22,52,62,41,Abstract_Concrete_6tasks_simseq_2seq_listtask_switchAB_fMRI,730666,53241,42513,5,37,197,A2,glasses,3,7&,4195.4640263,4569.4748368,374.0108105,0,0
1458,9(,1,32,11,21,52,62,41,Abstract_Concrete_6tasks_simseq_2seq_listtask_switchAB_fMRI,730666,53241,42513,5,38,198,B2,vest,2,9(,4195.4640263,4579.4757092,384.0116829,0,0
1980,8*,1,31,11,22,51,62,41,Abstract_Concrete_6tasks_simseq_2seq_listtask_switchAB_fMRI,730666,53241,42513,5,39,199,A5,helmet,1,8*,4195.4640263,4588.4769967,393.0129704,0,0
1540,4$,1,31,12,21,52,61,41,Abstract_Concrete_6tasks_simseq_2seq_listtask_switchAB_fMRI,730666,53241,42513,5,40,200,B1,weapon,5,4$,4195.4640263,4597.4748794,402.0108531,0,0
1896,3#,1,31,12,21,52,62,42,Abstract_Concrete_6tasks_simseq_2seq_listtask_switchAB_fMRI,730666,53241,42513,6,1,201,A1,tools,6,3#,4652.6844932,4660.6945497,8.01005649999934,0,0
1355,9(,1,32,12,21,52,62,42,Abstract_Concrete_6tasks_simseq_2seq_listtask_switchAB_fMRI,730666,53241,42513,6,2,202,B2,vest,2,9(,4652.6844932,4669.6941109,17.0096176999996,0,0
2785,8*,1,31,11,21,52,61,41,Abstract_Concrete_6tasks_simseq_2seq_listtask_switchAB_fMRI,730666,53241,42513,6,3,203,A5,helmet,1,8*,4652.6844932,4678.6972974,26.0128041999997,0,0
1154,9(,1,31,12,21,52,62,41,Abstract_Concrete_6tasks_simseq_2seq_listtask_switchAB_fMRI,730666,53241,42513,6,4,204,B2,vest,2,9(,4652.6844932,4688.696057,36.0115637999997,0,0
3451,9(,1,32,12,22,51,62,41,Abstract_Concrete_6tasks_simseq_2seq_listtask_switchAB_fMRI,730666,53241,42513,6,5,205,A3,vest,2,9(,4652.6844932,4697.6959725,45.0114792999993,0,0
2974,3#,1,31,11,21,52,61,42,Abstract_Concrete_6tasks_simseq_2seq_listtask_switchAB_fMRI,730666,53241,42513,6,6,206,B3,tools,6,3#,4652.6844932,4708.6967607,56.0122674999993,0,0
1785,7&,1,32,11,22,52,62,41,Abstract_Concrete_6tasks_simseq_2seq_listtask_switchAB_fMRI,730666,53241,42513,6,7,207,A2,glasses,3,7&,4652.6844932,4718.6951046,66.0106114,0,0
2658,3#,1,32,11,21,52,61,42,Abstract_Concrete_6tasks_simseq_2seq_listtask_switchAB_fMRI,730666,53241,42513,6,8,208,B3,tools,6,3#,4652.6844932,4727.6976823,75.0131891000001,0,0
2994,4$,1,31,11,22,51,62,42,Abstract_Concrete_6tasks_simseq_2seq_listtask_switchAB_fMRI,730666,53241,42513,6,9,209,A4,weapon,5,4$,4652.6844932,4737.6953839,85.0108906999994,0,0
2365,7&,1,31,12,22,51,62,41,Abstract_Concrete_6tasks_simseq_2seq_listtask_switchAB_fMRI,730666,53241,42513,6,10,210,B5,glasses,3,7&,4652.6844932,4748.6968528,96.0123595999994,0,0
1873,4$,1,32,12,22,51,62,42,Abstract_Concrete_6tasks_simseq_2seq_listtask_switchAB_fMRI,730666,53241,42513,6,11,211,A4,weapon,5,4$,4652.6844932,4758.6953293,106.010836099999,0,0
3965,3#,1,32,11,22,52,62,42,Abstract_Concrete_6tasks_simseq_2seq_listtask_switchAB_fMRI,730666,53241,42513,6,12,212,B3,tools,6,3#,4652.6844932,4767.6941275,115.0096343,0,0
1222,3#,1,31,11,21,51,62,42,Abstract_Concrete_6tasks_simseq_2seq_listtask_switchAB_fMRI,730666,53241,42513,6,13,213,A1,tools,6,3#,4652.6844932,4778.6961163,126.011623099999,0,0
2511,3#,1,31,11,22,51,62,42,Abstract_Concrete_6tasks_simseq_2seq_listtask_switchAB_fMRI,730666,53241,42513,6,14,214,B3,tools,6,3#,4652.6844932,4787.6977548,135.0132616,0,0
2016,3#,1,32,11,21,51,62,41,Abstract_Concrete_6tasks_simseq_2seq_listtask_switchAB_fMRI,730666,53241,42513,6,15,215,A1,tools,6,3#,4652.6844932,4797.6964523,145.011959099999,0,0
1641,9(,1,32,12,21,51,61,42,Abstract_Concrete_6tasks_simseq_2seq_listtask_switchAB_fMRI,730666,53241,42513,6,16,216,B2,vest,2,9(,4652.6844932,4807.698536,155.0140428,0,0
1966,7&,1,32,12,22,52,62,41,Abstract_Concrete_6tasks_simseq_2seq_listtask_switchAB_fMRI,730666,53241,42513,6,17,217,A2,glasses,3,7&,4652.6844932,4816.6963579,164.0118647,0,0
1914,8*,1,32,11,22,51,62,42,Abstract_Concrete_6tasks_simseq_2seq_listtask_switchAB_fMRI,730666,53241,42513,6,18,218,B4,helmet,1,8*,4652.6844932,4825.6946035,173.0101103,0,0
1620,8*,1,32,11,21,51,61,41,Abstract_Concrete_6tasks_simseq_2seq_listtask_switchAB_fMRI,730666,53241,42513,6,19,219,A5,helmet,1,8*,4652.6844932,4834.6956633,182.0111701,0,0
1979,4$,1,31,12,22,52,61,41,Abstract_Concrete_6tasks_simseq_2seq_listtask_switchAB_fMRI,730666,53241,42513,6,20,220,B1,weapon,5,4$,4652.6844932,4843.6974936,191.013000399999,0,0
1236,3#,1,32,12,21,52,62,41,Abstract_Concrete_6tasks_simseq_2seq_listtask_switchAB_fMRI,730666,53241,42513,6,21,221,A1,tools,6,3#,4652.6844932,4852.6934192,200.008926,0,0
2162,8*,1,32,11,21,52,62,42,Abstract_Concrete_6tasks_simseq_2seq_listtask_switchAB_fMRI,730666,53241,42513,6,22,222,B4,helmet,1,8*,4652.6844932,4861.6969403,209.0124471,0,0
3382,9(,1,32,11,21,51,62,42,Abstract_Concrete_6tasks_simseq_2seq_listtask_switchAB_fMRI,730666,53241,42513,6,23,223,A3,vest,2,9(,4652.6844932,4871.6949281,219.010434899999,0,0
1462,8*,1,31,12,21,52,61,41,Abstract_Concrete_6tasks_simseq_2seq_listtask_switchAB_fMRI,730666,53241,42513,6,24,224,B4,helmet,1,8*,4652.6844932,4882.6970084,230.0125152,0,0
3672,4$,1,31,12,22,52,62,42,Abstract_Concrete_6tasks_simseq_2seq_listtask_switchAB_fMRI,730666,53241,42513,6,25,225,A4,weapon,5,4$,4652.6844932,4891.6976263,239.013133099999,0,0
1606,7&,1,32,12,21,51,62,41,Abstract_Concrete_6tasks_simseq_2seq_listtask_switchAB_fMRI,730666,53241,42513,6,26,226,B5,glasses,3,7&,4652.6844932,4902.6951044,250.010611199999,0,0
2454,9(,1,32,12,22,51,62,41,Abstract_Concrete_6tasks_simseq_2seq_listtask_switchAB_fMRI,730666,53241,42513,6,27,227,A3,vest,2,9(,4652.6844932,4911.6976223,259.0131291,0,0
1322,7&,1,32,11,21,51,62,42,Abstract_Concrete_6tasks_simseq_2seq_listtask_switchAB_fMRI,730666,53241,42513,6,28,228,B5,glasses,3,7&,4652.6844932,4921.6962881,269.0117949,0,0
1396,9(,0,32,11,22,51,62,41,Abstract_Concrete_6tasks_simseq_2seq_listtask_switchAB_fMRI,730666,53241,42513,6,29,229,A2,glasses,3,7&,4652.6844932,4930.6951863,278.0106931,4932.1066295,279.4221363
3180,8*,1,32,12,22,51,61,41,Abstract_Concrete_6tasks_simseq_2seq_listtask_switchAB_fMRI,730666,53241,42513,6,30,230,B4,helmet,1,8*,4652.6844932,4939.6951539,287.0106607,0,0
2349,7&,1,31,11,22,52,61,42,Abstract_Concrete_6tasks_simseq_2seq_listtask_switchAB_fMRI,730666,53241,42513,6,31,231,A2,glasses,3,7&,4652.6844932,4950.6971628,298.0126696,0,0
2000,4$,1,32,12,21,51,61,41,Abstract_Concrete_6tasks_simseq_2seq_listtask_switchAB_fMRI,730666,53241,42513,6,32,232,B1,weapon,5,4$,4652.6844932,4960.6959433,308.0114501,0,0
2820,9(,1,31,12,22,51,61,41,Abstract_Concrete_6tasks_simseq_2seq_listtask_switchAB_fMRI,730666,53241,42513,6,33,233,A3,vest,2,9(,4652.6844932,4970.6952564,318.0107632,0,0
2995,9(,1,31,12,21,52,61,41,Abstract_Concrete_6tasks_simseq_2seq_listtask_switchAB_fMRI,730666,53241,42513,6,34,234,B2,vest,2,9(,4652.6844932,4980.6953349,328.010841699999,0,0
2460,8*,1,32,12,21,51,62,42,Abstract_Concrete_6tasks_simseq_2seq_listtask_switchAB_fMRI,730666,53241,42513,6,35,235,A5,helmet,1,8*,4652.6844932,4991.695953,339.0114598,0,0
1833,4$,1,32,12,21,51,61,41,Abstract_Concrete_6tasks_simseq_2seq_listtask_switchAB_fMRI,730666,53241,42513,6,36,236,B1,weapon,5,4$,4652.6844932,5001.6949028,349.0104096,0,0
1903,4$,1,32,12,21,52,62,41,Abstract_Concrete_6tasks_simseq_2seq_listtask_switchAB_fMRI,730666,53241,42513,6,37,237,A4,weapon,5,4$,4652.6844932,5010.6957791,358.0112859,0,0
1847,4$,1,32,12,21,51,62,42,Abstract_Concrete_6tasks_simseq_2seq_listtask_switchAB_fMRI,730666,53241,42513,6,38,238,B1,weapon,5,4$,4652.6844932,5019.6944937,367.010000499999,0,0
3056,8*,1,31,12,21,52,61,42,Abstract_Concrete_6tasks_simseq_2seq_listtask_switchAB_fMRI,730666,53241,42513,6,39,239,A5,helmet,1,8*,4652.6844932,5028.6941515,376.0096583,0,0
2057,7&,1,31,12,22,52,62,42,Abstract_Concrete_6tasks_simseq_2seq_listtask_switchAB_fMRI,730666,53241,42513,6,40,240,B5,glasses,3,7&,4652.6844932,5039.6959028,387.0114096,0,0
