rt1,resp1,correct1,features_1,features_2,features_3,features_4,features_5,features_6,ExpName,subNo,seqA,seqB,block,trial,trialnum,cuetype,task,subtaskcode,corr_resp1,onsetTime_s,onsetTime_cue,onset_cue,onsetTime_cue_fb,onset_cue_fb
7516,3#,1,11,52,32,42,61,21,Abstract_Concrete_6tasks_simseq_2seq_listtask_switchAB_fMRI,784426,12345,43152,1,1,1,B4,tools,6,3#,4961.306462,4969.317344,8.0108815,0,0
5090,9(,1,12,52,31,41,62,21,Abstract_Concrete_6tasks_simseq_2seq_listtask_switchAB_fMRI,784426,12345,43152,1,2,2,A3,glasses,3,9(,4961.306462,4984.31888,23.0124176,0,0
4373,9(,1,12,51,32,41,62,21,Abstract_Concrete_6tasks_simseq_2seq_listtask_switchAB_fMRI,784426,12345,43152,1,3,3,B2,glasses,3,9(,4961.306462,4997.318561,36.0120983,0,0
2160,7&,1,11,52,31,41,61,22,Abstract_Concrete_6tasks_simseq_2seq_listtask_switchAB_fMRI,784426,12345,43152,1,4,4,A1,helmet,1,7&,4961.306462,5009.319803,48.0133405,0,0
3225,3#,1,11,51,31,42,62,21,Abstract_Concrete_6tasks_simseq_2seq_listtask_switchAB_fMRI,784426,12345,43152,1,5,5,B4,tools,6,3#,4961.306462,5019.318433,58.0119703,0,0
2472,2@,1,11,51,31,42,62,21,Abstract_Concrete_6tasks_simseq_2seq_listtask_switchAB_fMRI,784426,12345,43152,1,6,6,A2,vest,2,2@,4961.306462,5030.31906,69.0125979,0,0
1913,3#,1,11,52,32,42,62,22,Abstract_Concrete_6tasks_simseq_2seq_listtask_switchAB_fMRI,784426,12345,43152,1,7,7,B4,tools,6,3#,4961.306462,5040.319027,79.0125647,0,0
1328,7&,1,11,52,32,41,62,22,Abstract_Concrete_6tasks_simseq_2seq_listtask_switchAB_fMRI,784426,12345,43152,1,8,8,A1,helmet,1,7&,4961.306462,5049.31826,88.011798,0,0
2752,8*,1,12,52,31,41,62,21,Abstract_Concrete_6tasks_simseq_2seq_listtask_switchAB_fMRI,784426,12345,43152,1,9,9,B1,weapon,5,8*,4961.306462,5058.319857,97.0133943,0,0
3597,3#,1,12,52,31,41,61,22,Abstract_Concrete_6tasks_simseq_2seq_listtask_switchAB_fMRI,784426,12345,43152,1,10,10,A5,tools,6,3#,4961.306462,5068.318171,107.011709,0,0
3186,2@,1,12,51,31,42,61,21,Abstract_Concrete_6tasks_simseq_2seq_listtask_switchAB_fMRI,784426,12345,43152,1,11,11,B5,vest,2,2@,4961.306462,5079.318849,118.0123871,0,0
2800,8*,1,11,52,32,41,61,21,Abstract_Concrete_6tasks_simseq_2seq_listtask_switchAB_fMRI,784426,12345,43152,1,12,12,A4,weapon,5,8*,4961.306462,5090.318555,129.012093,0,0
1518,8*,1,11,52,32,42,61,21,Abstract_Concrete_6tasks_simseq_2seq_listtask_switchAB_fMRI,784426,12345,43152,1,13,13,B1,weapon,5,8*,4961.306462,5100.318288,139.0118259,0,0
4307,8*,1,11,52,32,42,61,22,Abstract_Concrete_6tasks_simseq_2seq_listtask_switchAB_fMRI,784426,12345,43152,1,14,14,A4,weapon,5,8*,4961.306462,5109.318845,148.0123827,0,0
2435,9(,1,11,51,31,41,61,22,Abstract_Concrete_6tasks_simseq_2seq_listtask_switchAB_fMRI,784426,12345,43152,1,15,15,B2,glasses,3,9(,4961.306462,5121.319094,160.0126313,0,0
1877,3#,1,11,52,32,42,61,22,Abstract_Concrete_6tasks_simseq_2seq_listtask_switchAB_fMRI,784426,12345,43152,1,16,16,A5,tools,6,3#,4961.306462,5131.317427,170.0109651,0,0
2380,7&,1,11,51,31,42,62,22,Abstract_Concrete_6tasks_simseq_2seq_listtask_switchAB_fMRI,784426,12345,43152,1,17,17,B3,helmet,1,7&,4961.306462,5140.317295,179.010833,0,0
1400,7&,1,12,52,32,42,61,21,Abstract_Concrete_6tasks_simseq_2seq_listtask_switchAB_fMRI,784426,12345,43152,1,18,18,A1,helmet,1,7&,4961.306462,5150.320385,189.0139229,0,0
2013,9(,1,11,51,32,42,62,21,Abstract_Concrete_6tasks_simseq_2seq_listtask_switchAB_fMRI,784426,12345,43152,1,19,19,B2,glasses,3,9(,4961.306462,5159.318735,198.0122728,0,0
1993,3#,1,12,52,32,41,62,21,Abstract_Concrete_6tasks_simseq_2seq_listtask_switchAB_fMRI,784426,12345,43152,1,20,20,A5,tools,6,3#,4961.306462,5169.320551,208.0140889,0,0
4964,3#,1,12,51,32,42,61,21,Abstract_Concrete_6tasks_simseq_2seq_listtask_switchAB_fMRI,784426,12345,43152,1,21,21,B4,tools,6,3#,4961.306462,5179.317654,218.011192,0,0
1272,7&,1,12,51,32,42,61,21,Abstract_Concrete_6tasks_simseq_2seq_listtask_switchAB_fMRI,784426,12345,43152,1,22,22,A1,helmet,1,7&,4961.306462,5191.318214,230.0117518,0,0
2694,2@,1,12,52,32,41,62,22,Abstract_Concrete_6tasks_simseq_2seq_listtask_switchAB_fMRI,784426,12345,43152,1,23,23,B5,vest,2,2@,4961.306462,5200.321338,239.014876,0,0
3231,9(,1,12,51,31,42,62,22,Abstract_Concrete_6tasks_simseq_2seq_listtask_switchAB_fMRI,784426,12345,43152,1,24,24,A3,glasses,3,9(,4961.306462,5210.320125,249.0136629,0,0
2981,8*,1,11,52,31,42,62,21,Abstract_Concrete_6tasks_simseq_2seq_listtask_switchAB_fMRI,784426,12345,43152,1,25,25,B1,weapon,5,8*,4961.306462,5221.31866,260.0121982,0,0
2626,9(,1,12,52,32,42,62,22,Abstract_Concrete_6tasks_simseq_2seq_listtask_switchAB_fMRI,784426,12345,43152,1,26,26,A3,glasses,3,9(,4961.306462,5231.319149,270.0126865,0,0
2901,7&,1,11,51,32,41,61,22,Abstract_Concrete_6tasks_simseq_2seq_listtask_switchAB_fMRI,784426,12345,43152,1,27,27,B3,helmet,1,7&,4961.306462,5241.318072,280.0116102,0,0
2135,3#,1,12,52,32,42,62,21,Abstract_Concrete_6tasks_simseq_2seq_listtask_switchAB_fMRI,784426,12345,43152,1,28,28,A5,tools,6,3#,4961.306462,5251.316822,290.0103594,0,0
1481,2@,1,11,52,31,41,61,21,Abstract_Concrete_6tasks_simseq_2seq_listtask_switchAB_fMRI,784426,12345,43152,1,29,29,B5,vest,2,2@,4961.306462,5261.317728,300.0112661,0,0
2878,2@,1,11,52,32,41,61,22,Abstract_Concrete_6tasks_simseq_2seq_listtask_switchAB_fMRI,784426,12345,43152,1,30,30,A2,vest,2,2@,4961.306462,5270.319092,309.0126302,0,0
2730,7&,1,12,52,31,42,61,21,Abstract_Concrete_6tasks_simseq_2seq_listtask_switchAB_fMRI,784426,12345,43152,1,31,31,B3,helmet,1,7&,4961.306462,5280.317732,319.0112697,0,0
3056,9(,1,12,51,32,42,62,21,Abstract_Concrete_6tasks_simseq_2seq_listtask_switchAB_fMRI,784426,12345,43152,1,32,32,A3,glasses,3,9(,4961.306462,5290.318131,329.0116691,0,0
2837,8*,1,11,51,32,42,62,22,Abstract_Concrete_6tasks_simseq_2seq_listtask_switchAB_fMRI,784426,12345,43152,1,33,33,B1,weapon,5,8*,4961.306462,5301.320424,340.0139622,0,0
2616,8*,1,11,52,32,42,61,21,Abstract_Concrete_6tasks_simseq_2seq_listtask_switchAB_fMRI,784426,12345,43152,1,34,34,A4,weapon,5,8*,4961.306462,5311.317112,350.01065,0,0
3478,7&,1,12,52,31,42,61,22,Abstract_Concrete_6tasks_simseq_2seq_listtask_switchAB_fMRI,784426,12345,43152,1,35,35,B3,helmet,1,7&,4961.306462,5321.319279,360.0128172,0,0
2769,8*,1,12,51,31,42,61,22,Abstract_Concrete_6tasks_simseq_2seq_listtask_switchAB_fMRI,784426,12345,43152,1,36,36,A4,weapon,5,8*,4961.306462,5332.320796,371.0143334,0,0
1831,2@,1,11,52,31,42,62,21,Abstract_Concrete_6tasks_simseq_2seq_listtask_switchAB_fMRI,784426,12345,43152,1,37,37,B5,vest,2,2@,4961.306462,5342.31773,381.0112673,0,0
2617,2@,1,12,51,31,41,61,21,Abstract_Concrete_6tasks_simseq_2seq_listtask_switchAB_fMRI,784426,12345,43152,1,38,38,A2,vest,2,2@,4961.306462,5351.318281,390.011819,0,0
3038,9(,1,12,51,31,42,61,21,Abstract_Concrete_6tasks_simseq_2seq_listtask_switchAB_fMRI,784426,12345,43152,1,39,39,B2,glasses,3,9(,4961.306462,5361.317129,400.0106671,0,0
2388,2@,1,12,51,32,42,61,21,Abstract_Concrete_6tasks_simseq_2seq_listtask_switchAB_fMRI,784426,12345,43152,1,40,40,A2,vest,2,2@,4961.306462,5372.318132,411.01167,0,0
4947,7&,1,12,52,31,42,61,22,Abstract_Concrete_6tasks_simseq_2seq_listtask_switchAB_fMRI,784426,12345,43152,2,1,41,B3,helmet,1,7&,5445.572671,5453.581701,8.009029857,0,0
3223,3#,1,11,51,32,41,62,22,Abstract_Concrete_6tasks_simseq_2seq_listtask_switchAB_fMRI,784426,12345,43152,2,2,42,A5,tools,6,3#,5445.572671,5465.582449,20.0097776,0,0
2819,7&,1,12,51,31,41,62,21,Abstract_Concrete_6tasks_simseq_2seq_listtask_switchAB_fMRI,784426,12345,43152,2,3,43,B3,helmet,1,7&,5445.572671,5476.586401,31.0137302,0,0
8553,8*,1,11,51,32,42,62,22,Abstract_Concrete_6tasks_simseq_2seq_listtask_switchAB_fMRI,784426,12345,43152,2,4,44,A4,weapon,5,8*,5445.572671,5486.584051,41.0113799,0,0
1942,8*,0,11,52,32,42,62,21,Abstract_Concrete_6tasks_simseq_2seq_listtask_switchAB_fMRI,784426,12345,43152,2,5,45,B2,glasses,3,9(,5445.572671,5502.586004,57.013333,5504.546414,58.9737431
3487,9(,1,12,52,32,42,61,22,Abstract_Concrete_6tasks_simseq_2seq_listtask_switchAB_fMRI,784426,12345,43152,2,6,46,A3,glasses,3,9(,5445.572671,5511.582859,66.0101884,0,0
3212,3#,1,12,52,32,41,62,21,Abstract_Concrete_6tasks_simseq_2seq_listtask_switchAB_fMRI,784426,12345,43152,2,7,47,B4,tools,6,3#,5445.572671,5522.58502,77.0123486,0,0
2694,3#,1,11,52,32,41,62,21,Abstract_Concrete_6tasks_simseq_2seq_listtask_switchAB_fMRI,784426,12345,43152,2,8,48,A5,tools,6,3#,5445.572671,5533.58279,88.0101191,0,0
2117,7&,1,11,51,31,41,61,21,Abstract_Concrete_6tasks_simseq_2seq_listtask_switchAB_fMRI,784426,12345,43152,2,9,49,B3,helmet,1,7&,5445.572671,5543.586142,98.0134708,0,0
2582,3#,1,11,52,32,42,61,21,Abstract_Concrete_6tasks_simseq_2seq_listtask_switchAB_fMRI,784426,12345,43152,2,10,50,A5,tools,6,3#,5445.572671,5553.584685,108.0120137,0,0
2090,8*,1,11,51,31,41,61,22,Abstract_Concrete_6tasks_simseq_2seq_listtask_switchAB_fMRI,784426,12345,43152,2,11,51,B1,weapon,5,8*,5445.572671,5563.583968,118.0112968,0,0
2548,2@,0,11,52,32,41,62,22,Abstract_Concrete_6tasks_simseq_2seq_listtask_switchAB_fMRI,784426,12345,43152,2,12,52,A4,weapon,5,8*,5445.572671,5573.584972,128.012301,5576.144008,130.5713374
2995,3#,1,12,52,31,42,61,22,Abstract_Concrete_6tasks_simseq_2seq_listtask_switchAB_fMRI,784426,12345,43152,2,13,53,B4,tools,6,3#,5445.572671,5583.584529,138.0118578,0,0
1264,7&,1,12,52,32,41,61,22,Abstract_Concrete_6tasks_simseq_2seq_listtask_switchAB_fMRI,784426,12345,43152,2,14,54,A1,helmet,1,7&,5445.572671,5594.5864,149.0137288,0,0
2127,9(,1,12,52,31,42,62,21,Abstract_Concrete_6tasks_simseq_2seq_listtask_switchAB_fMRI,784426,12345,43152,2,15,55,B2,glasses,3,9(,5445.572671,5603.584594,158.0119229,0,0
1976,8*,1,11,51,32,41,61,21,Abstract_Concrete_6tasks_simseq_2seq_listtask_switchAB_fMRI,784426,12345,43152,2,16,56,A4,weapon,5,8*,5445.572671,5613.585339,168.0126684,0,0
2269,2@,1,12,52,31,42,62,21,Abstract_Concrete_6tasks_simseq_2seq_listtask_switchAB_fMRI,784426,12345,43152,2,17,57,B5,vest,2,2@,5445.572671,5622.583255,177.0105836,0,0
3427,2@,1,11,51,32,42,62,21,Abstract_Concrete_6tasks_simseq_2seq_listtask_switchAB_fMRI,784426,12345,43152,2,18,58,A2,vest,2,2@,5445.572671,5632.586307,187.0136359,0,0
2627,3#,1,11,52,32,41,62,22,Abstract_Concrete_6tasks_simseq_2seq_listtask_switchAB_fMRI,784426,12345,43152,2,19,59,B4,tools,6,3#,5445.572671,5643.584317,198.0116455,0,0
3462,2@,1,11,51,31,42,62,21,Abstract_Concrete_6tasks_simseq_2seq_listtask_switchAB_fMRI,784426,12345,43152,2,20,60,A2,vest,2,2@,5445.572671,5653.586261,208.0135902,0,0
1539,8*,1,11,52,31,41,62,21,Abstract_Concrete_6tasks_simseq_2seq_listtask_switchAB_fMRI,784426,12345,43152,2,21,61,B1,weapon,5,8*,5445.572671,5664.585179,219.0125084,0,0
2058,8*,1,12,51,32,41,61,21,Abstract_Concrete_6tasks_simseq_2seq_listtask_switchAB_fMRI,784426,12345,43152,2,22,62,A4,weapon,5,8*,5445.572671,5673.584806,228.0121349,0,0
3065,9(,1,11,52,32,41,61,21,Abstract_Concrete_6tasks_simseq_2seq_listtask_switchAB_fMRI,784426,12345,43152,2,23,63,B2,glasses,3,9(,5445.572671,5683.584881,238.0122096,0,0
3601,9(,1,11,51,31,42,62,22,Abstract_Concrete_6tasks_simseq_2seq_listtask_switchAB_fMRI,784426,12345,43152,2,24,64,A3,glasses,3,9(,5445.572671,5694.585702,249.0130305,0,0
2856,7&,1,12,52,32,42,62,22,Abstract_Concrete_6tasks_simseq_2seq_listtask_switchAB_fMRI,784426,12345,43152,2,25,65,B3,helmet,1,7&,5445.572671,5705.58535,260.0126793,0,0
2164,7&,1,11,51,32,41,61,21,Abstract_Concrete_6tasks_simseq_2seq_listtask_switchAB_fMRI,784426,12345,43152,2,26,66,A1,helmet,1,7&,5445.572671,5715.584136,270.0114645,0,0
1764,2@,1,12,52,32,41,61,21,Abstract_Concrete_6tasks_simseq_2seq_listtask_switchAB_fMRI,784426,12345,43152,2,27,67,B5,vest,2,2@,5445.572671,5725.584431,280.0117596,0,0
3338,9(,1,12,51,31,41,62,21,Abstract_Concrete_6tasks_simseq_2seq_listtask_switchAB_fMRI,784426,12345,43152,2,28,68,A3,glasses,3,9(,5445.572671,5734.585881,289.0132101,0,0
1445,8*,1,11,51,31,42,62,22,Abstract_Concrete_6tasks_simseq_2seq_listtask_switchAB_fMRI,784426,12345,43152,2,29,69,B1,weapon,5,8*,5445.572671,5745.586336,300.0136651,0,0
2318,2@,1,12,51,31,41,61,21,Abstract_Concrete_6tasks_simseq_2seq_listtask_switchAB_fMRI,784426,12345,43152,2,30,70,A2,vest,2,2@,5445.572671,5754.582722,309.0100512,0,0
3068,3#,1,12,51,31,41,61,22,Abstract_Concrete_6tasks_simseq_2seq_listtask_switchAB_fMRI,784426,12345,43152,2,31,71,B4,tools,6,3#,5445.572671,5764.585479,319.012808,0,0
1284,7&,1,12,52,32,41,61,22,Abstract_Concrete_6tasks_simseq_2seq_listtask_switchAB_fMRI,784426,12345,43152,2,32,72,A1,helmet,1,7&,5445.572671,5775.586039,330.0133679,0,0
1408,2@,1,12,51,32,42,61,22,Abstract_Concrete_6tasks_simseq_2seq_listtask_switchAB_fMRI,784426,12345,43152,2,33,73,B5,vest,2,2@,5445.572671,5784.586393,339.0137224,0,0
1857,3#,1,12,52,32,41,61,21,Abstract_Concrete_6tasks_simseq_2seq_listtask_switchAB_fMRI,784426,12345,43152,2,34,74,A5,tools,6,3#,5445.572671,5793.585452,348.0127813,0,0
1404,8*,1,11,52,31,42,61,22,Abstract_Concrete_6tasks_simseq_2seq_listtask_switchAB_fMRI,784426,12345,43152,2,35,75,B1,weapon,5,8*,5445.572671,5802.583047,357.0103755,0,0
3435,9(,1,12,52,32,42,62,22,Abstract_Concrete_6tasks_simseq_2seq_listtask_switchAB_fMRI,784426,12345,43152,2,36,76,A3,glasses,3,9(,5445.572671,5811.585618,366.0129467,0,0
2492,9(,1,12,51,32,42,62,22,Abstract_Concrete_6tasks_simseq_2seq_listtask_switchAB_fMRI,784426,12345,43152,2,37,77,B2,glasses,3,9(,5445.572671,5822.585806,377.013135,0,0
1389,7&,1,11,52,31,41,61,22,Abstract_Concrete_6tasks_simseq_2seq_listtask_switchAB_fMRI,784426,12345,43152,2,38,78,A1,helmet,1,7&,5445.572671,5832.584678,387.0120072,0,0
1545,2@,1,12,52,32,42,62,22,Abstract_Concrete_6tasks_simseq_2seq_listtask_switchAB_fMRI,784426,12345,43152,2,39,79,B5,vest,2,2@,5445.572671,5841.583898,396.0112272,0,0
1768,2@,1,11,52,31,41,62,22,Abstract_Concrete_6tasks_simseq_2seq_listtask_switchAB_fMRI,784426,12345,43152,2,40,80,A2,vest,2,2@,5445.572671,5850.586221,405.0135497,0,0
2474,9(,1,11,51,31,41,61,21,Abstract_Concrete_6tasks_simseq_2seq_listtask_switchAB_fMRI,784426,12345,43152,3,1,81,B2,glasses,3,9(,6210.279522,6218.2899255,8.01040350000039,0,0
2644,9(,1,12,51,32,41,61,22,Abstract_Concrete_6tasks_simseq_2seq_listtask_switchAB_fMRI,784426,12345,43152,3,2,82,A3,glasses,3,9(,6210.279522,6228.2888996,18.0093776000003,0,0
1537,9(,1,12,52,31,42,61,21,Abstract_Concrete_6tasks_simseq_2seq_listtask_switchAB_fMRI,784426,12345,43152,3,3,83,B2,glasses,3,9(,6210.279522,6238.2915386,28.0120166000006,0,0
2554,2@,1,11,51,31,41,62,22,Abstract_Concrete_6tasks_simseq_2seq_listtask_switchAB_fMRI,784426,12345,43152,3,4,84,A2,vest,2,2@,6210.279522,6247.2907194,37.0111974000001,0,0
1401,2@,1,12,51,31,42,61,21,Abstract_Concrete_6tasks_simseq_2seq_listtask_switchAB_fMRI,784426,12345,43152,3,5,85,B5,vest,2,2@,6210.279522,6257.2902374,47.0107153999998,0,0
2547,2@,1,11,52,32,42,62,22,Abstract_Concrete_6tasks_simseq_2seq_listtask_switchAB_fMRI,784426,12345,43152,3,6,86,A2,vest,2,2@,6210.279522,6266.293977,56.0144550000005,0,0
1636,8*,1,11,51,32,42,61,22,Abstract_Concrete_6tasks_simseq_2seq_listtask_switchAB_fMRI,784426,12345,43152,3,7,87,B1,weapon,5,8*,6210.279522,6276.2917223,66.0122003000006,0,0
2957,8*,1,11,51,31,42,62,21,Abstract_Concrete_6tasks_simseq_2seq_listtask_switchAB_fMRI,784426,12345,43152,3,8,88,A4,weapon,5,8*,6210.279522,6285.2919032,75.0123812000002,0,0
1696,3#,1,11,52,31,42,61,21,Abstract_Concrete_6tasks_simseq_2seq_listtask_switchAB_fMRI,784426,12345,43152,3,9,89,B4,tools,6,3#,6210.279522,6295.289161,85.0096389999999,0,0
1981,2@,1,11,51,31,42,62,22,Abstract_Concrete_6tasks_simseq_2seq_listtask_switchAB_fMRI,784426,12345,43152,3,10,90,A2,vest,2,2@,6210.279522,6304.2914753,94.0119532999997,0,0
3466,7&,1,11,52,31,42,62,21,Abstract_Concrete_6tasks_simseq_2seq_listtask_switchAB_fMRI,784426,12345,43152,3,11,91,B3,helmet,1,7&,6210.279522,6313.2897333,103.0102113,0,0
2840,8*,1,12,52,32,42,61,21,Abstract_Concrete_6tasks_simseq_2seq_listtask_switchAB_fMRI,784426,12345,43152,3,12,92,A4,weapon,5,8*,6210.279522,6324.291536,114.012014,0,0
5406,3#,1,12,51,31,41,61,22,Abstract_Concrete_6tasks_simseq_2seq_listtask_switchAB_fMRI,784426,12345,43152,3,13,93,B4,tools,6,3#,6210.279522,6334.2916358,124.0121138,0,0
2495,9(,1,12,51,31,42,62,21,Abstract_Concrete_6tasks_simseq_2seq_listtask_switchAB_fMRI,784426,12345,43152,3,14,94,A3,glasses,3,9(,6210.279522,6347.294074,137.014552000001,0,0
2317,7&,1,12,52,32,41,61,21,Abstract_Concrete_6tasks_simseq_2seq_listtask_switchAB_fMRI,784426,12345,43152,3,15,95,B3,helmet,1,7&,6210.279522,6357.2931071,147.0135851,0,0
1499,3#,1,11,51,31,41,61,21,Abstract_Concrete_6tasks_simseq_2seq_listtask_switchAB_fMRI,784426,12345,43152,3,16,96,A5,tools,6,3#,6210.279522,6367.2934424,157.0139204,0,0
1871,3#,1,12,52,31,41,62,21,Abstract_Concrete_6tasks_simseq_2seq_listtask_switchAB_fMRI,784426,12345,43152,3,17,97,B4,tools,6,3#,6210.279522,6376.2932312,166.0137092,0,0
2014,3#,1,12,51,31,42,61,21,Abstract_Concrete_6tasks_simseq_2seq_listtask_switchAB_fMRI,784426,12345,43152,3,18,98,A5,tools,6,3#,6210.279522,6385.291306,175.011784,0,0
2661,9(,0,12,52,32,41,62,21,Abstract_Concrete_6tasks_simseq_2seq_listtask_switchAB_fMRI,784426,12345,43152,3,19,99,B3,helmet,1,7&,6210.279522,6395.2925708,185.0130488,6397.9680845,187.6885625
1199,7&,1,11,51,31,41,62,21,Abstract_Concrete_6tasks_simseq_2seq_listtask_switchAB_fMRI,784426,12345,43152,3,20,100,A1,helmet,1,7&,6210.279522,6405.2893208,195.0097988,0,0
1885,2@,1,11,51,31,42,62,21,Abstract_Concrete_6tasks_simseq_2seq_listtask_switchAB_fMRI,784426,12345,43152,3,21,101,B5,vest,2,2@,6210.279522,6414.2914444,204.0119224,0,0
1834,9(,1,12,51,31,42,61,21,Abstract_Concrete_6tasks_simseq_2seq_listtask_switchAB_fMRI,784426,12345,43152,3,22,102,A3,glasses,3,9(,6210.279522,6423.292402,213.01288,0,0
1887,9(,1,11,52,32,41,61,21,Abstract_Concrete_6tasks_simseq_2seq_listtask_switchAB_fMRI,784426,12345,43152,3,23,103,B2,glasses,3,9(,6210.279522,6432.2913701,222.0118481,0,0
2020,3#,1,11,52,31,42,61,22,Abstract_Concrete_6tasks_simseq_2seq_listtask_switchAB_fMRI,784426,12345,43152,3,24,104,A5,tools,6,3#,6210.279522,6441.2906566,231.0111346,0,0
1217,8*,1,11,51,32,41,61,22,Abstract_Concrete_6tasks_simseq_2seq_listtask_switchAB_fMRI,784426,12345,43152,3,25,105,B1,weapon,5,8*,6210.279522,6451.2925048,241.0129828,0,0
1262,7&,1,11,52,32,42,62,21,Abstract_Concrete_6tasks_simseq_2seq_listtask_switchAB_fMRI,784426,12345,43152,3,26,106,A1,helmet,1,7&,6210.279522,6460.2927193,250.0131973,0,0
1001,8*,1,11,51,32,41,61,22,Abstract_Concrete_6tasks_simseq_2seq_listtask_switchAB_fMRI,784426,12345,43152,3,27,107,B1,weapon,5,8*,6210.279522,6469.2917125,259.012190500001,0,0
2129,9(,1,12,52,32,41,62,21,Abstract_Concrete_6tasks_simseq_2seq_listtask_switchAB_fMRI,784426,12345,43152,3,28,108,A3,glasses,3,9(,6210.279522,6478.2932486,268.0137266,0,0
1210,8*,1,11,51,31,42,62,21,Abstract_Concrete_6tasks_simseq_2seq_listtask_switchAB_fMRI,784426,12345,43152,3,29,109,B1,weapon,5,8*,6210.279522,6488.291554,278.012032000001,0,0
2140,8*,1,11,52,32,42,62,21,Abstract_Concrete_6tasks_simseq_2seq_listtask_switchAB_fMRI,784426,12345,43152,3,30,110,A4,weapon,5,8*,6210.279522,6497.2912207,287.0116987,0,0
1746,3#,0,11,51,31,42,61,21,Abstract_Concrete_6tasks_simseq_2seq_listtask_switchAB_fMRI,784426,12345,43152,3,31,111,B5,vest,2,2@,6210.279522,6507.2910208,297.0114988,6509.048104,298.768582000001
4846,2@,1,11,52,32,41,62,22,Abstract_Concrete_6tasks_simseq_2seq_listtask_switchAB_fMRI,784426,12345,43152,3,32,112,A2,vest,2,2@,6210.279522,6516.2902668,306.0107448,0,0
3021,3#,1,11,52,32,41,61,21,Abstract_Concrete_6tasks_simseq_2seq_listtask_switchAB_fMRI,784426,12345,43152,3,33,113,B4,tools,6,3#,6210.279522,6528.2907928,318.011270800001,0,0
1998,3#,1,12,51,32,41,62,21,Abstract_Concrete_6tasks_simseq_2seq_listtask_switchAB_fMRI,784426,12345,43152,3,34,114,A5,tools,6,3#,6210.279522,6539.2913008,329.0117788,0,0
1573,2@,1,12,51,31,42,62,22,Abstract_Concrete_6tasks_simseq_2seq_listtask_switchAB_fMRI,784426,12345,43152,3,35,115,B5,vest,2,2@,6210.279522,6549.2913501,339.0118281,0,0
1126,7&,1,12,51,32,42,61,22,Abstract_Concrete_6tasks_simseq_2seq_listtask_switchAB_fMRI,784426,12345,43152,3,36,116,A1,helmet,1,7&,6210.279522,6558.2928527,348.013330700001,0,0
1696,9(,1,11,52,32,41,61,21,Abstract_Concrete_6tasks_simseq_2seq_listtask_switchAB_fMRI,784426,12345,43152,3,37,117,B2,glasses,3,9(,6210.279522,6567.2906566,357.0111346,0,0
2104,8*,1,11,51,32,42,62,21,Abstract_Concrete_6tasks_simseq_2seq_listtask_switchAB_fMRI,784426,12345,43152,3,38,118,A4,weapon,5,8*,6210.279522,6576.2904703,366.010948300001,0,0
2756,9(,0,12,52,32,42,62,21,Abstract_Concrete_6tasks_simseq_2seq_listtask_switchAB_fMRI,784426,12345,43152,3,39,119,B3,helmet,1,7&,6210.279522,6586.2908161,376.0112941,6589.06087,378.781348
1043,7&,1,12,52,31,41,62,21,Abstract_Concrete_6tasks_simseq_2seq_listtask_switchAB_fMRI,784426,12345,43152,3,40,120,A1,helmet,1,7&,6210.279522,6596.2917992,386.0122772,0,0
2488,9(,1,11,52,31,41,61,21,Abstract_Concrete_6tasks_simseq_2seq_listtask_switchAB_fMRI,784426,12345,43152,4,1,121,A3,glasses,3,9(,6743.4304901,6751.4406205,8.01013039999998,0,0
1687,2@,1,11,52,32,42,62,21,Abstract_Concrete_6tasks_simseq_2seq_listtask_switchAB_fMRI,784426,12345,43152,4,2,122,B5,vest,2,2@,6743.4304901,6761.4401786,18.0096885000003,0,0
2342,2@,1,11,52,32,42,61,22,Abstract_Concrete_6tasks_simseq_2seq_listtask_switchAB_fMRI,784426,12345,43152,4,3,123,A2,vest,2,2@,6743.4304901,6770.4434933,27.0130032000006,0,0
1071,2@,1,11,52,32,41,61,21,Abstract_Concrete_6tasks_simseq_2seq_listtask_switchAB_fMRI,784426,12345,43152,4,4,124,B5,vest,2,2@,6743.4304901,6780.4425578,37.0120677000004,0,0
5387,9(,1,11,52,32,42,62,21,Abstract_Concrete_6tasks_simseq_2seq_listtask_switchAB_fMRI,784426,12345,43152,4,5,125,A3,glasses,3,9(,6743.4304901,6789.4445737,46.0140836,0,0
1723,9(,1,12,51,32,42,62,22,Abstract_Concrete_6tasks_simseq_2seq_listtask_switchAB_fMRI,784426,12345,43152,4,6,126,B2,glasses,3,9(,6743.4304901,6802.4439238,59.0134337000009,0,0
3183,8*,1,12,51,31,41,61,21,Abstract_Concrete_6tasks_simseq_2seq_listtask_switchAB_fMRI,784426,12345,43152,4,7,127,A4,weapon,5,8*,6743.4304901,6811.4437555,68.0132654000008,0,0
1856,3#,1,11,51,32,42,62,22,Abstract_Concrete_6tasks_simseq_2seq_listtask_switchAB_fMRI,784426,12345,43152,4,8,128,B4,tools,6,3#,6743.4304901,6822.444372,79.0138819000003,0,0
1782,2@,1,11,52,31,42,62,21,Abstract_Concrete_6tasks_simseq_2seq_listtask_switchAB_fMRI,784426,12345,43152,4,9,129,A2,vest,2,2@,6743.4304901,6831.4420984,88.0116083000003,0,0
2793,9(,1,12,51,31,41,62,22,Abstract_Concrete_6tasks_simseq_2seq_listtask_switchAB_fMRI,784426,12345,43152,4,10,130,B2,glasses,3,9(,6743.4304901,6840.4440641,97.0135740000005,0,0
1858,9(,1,11,52,31,42,62,22,Abstract_Concrete_6tasks_simseq_2seq_listtask_switchAB_fMRI,784426,12345,43152,4,11,131,A3,glasses,3,9(,6743.4304901,6850.4413372,107.0108471,0,0
3556,7&,1,11,52,31,41,61,22,Abstract_Concrete_6tasks_simseq_2seq_listtask_switchAB_fMRI,784426,12345,43152,4,12,132,B3,helmet,1,7&,6743.4304901,6859.4426222,116.012132100001,0,0
3476,2@,1,11,52,32,42,62,22,Abstract_Concrete_6tasks_simseq_2seq_listtask_switchAB_fMRI,784426,12345,43152,4,13,133,A2,vest,2,2@,6743.4304901,6870.4420454,127.011555300001,0,0
3455,7&,1,12,52,31,41,62,21,Abstract_Concrete_6tasks_simseq_2seq_listtask_switchAB_fMRI,784426,12345,43152,4,14,134,B3,helmet,1,7&,6743.4304901,6881.4430266,138.0125365,0,0
1171,7&,1,11,51,32,41,61,21,Abstract_Concrete_6tasks_simseq_2seq_listtask_switchAB_fMRI,784426,12345,43152,4,15,135,A1,helmet,1,7&,6743.4304901,6892.442609,149.0121189,0,0
1941,9(,1,12,52,32,41,62,21,Abstract_Concrete_6tasks_simseq_2seq_listtask_switchAB_fMRI,784426,12345,43152,4,16,136,B2,glasses,3,9(,6743.4304901,6901.444564,158.014073900001,0,0
1732,8*,1,12,52,31,42,61,22,Abstract_Concrete_6tasks_simseq_2seq_listtask_switchAB_fMRI,784426,12345,43152,4,17,137,A4,weapon,5,8*,6743.4304901,6910.4428297,167.012339600001,0,0
2388,9(,1,12,52,32,42,61,22,Abstract_Concrete_6tasks_simseq_2seq_listtask_switchAB_fMRI,784426,12345,43152,4,18,138,B2,glasses,3,9(,6743.4304901,6919.4425605,176.0120704,0,0
1165,3#,1,12,52,32,42,62,22,Abstract_Concrete_6tasks_simseq_2seq_listtask_switchAB_fMRI,784426,12345,43152,4,19,139,A5,tools,6,3#,6743.4304901,6929.4428509,186.0123608,0,0
1395,8*,0,11,51,31,41,62,21,Abstract_Concrete_6tasks_simseq_2seq_listtask_switchAB_fMRI,784426,12345,43152,4,20,140,B4,tools,6,3#,6743.4304901,6938.4440738,195.013583700001,6939.854277,196.423786900001
1773,7&,1,12,52,31,42,62,21,Abstract_Concrete_6tasks_simseq_2seq_listtask_switchAB_fMRI,784426,12345,43152,4,21,141,A1,helmet,1,7&,6743.4304901,6947.4404499,204.009959800001,0,0
2637,2@,1,12,52,32,42,62,21,Abstract_Concrete_6tasks_simseq_2seq_listtask_switchAB_fMRI,784426,12345,43152,4,22,142,B5,vest,2,2@,6743.4304901,6956.4435296,213.013039500001,0,0
1554,3#,1,12,51,31,41,62,22,Abstract_Concrete_6tasks_simseq_2seq_listtask_switchAB_fMRI,784426,12345,43152,4,23,143,A5,tools,6,3#,6743.4304901,6966.4428131,223.012323000001,0,0
1197,8*,1,12,51,31,42,62,21,Abstract_Concrete_6tasks_simseq_2seq_listtask_switchAB_fMRI,784426,12345,43152,4,24,144,B1,weapon,5,8*,6743.4304901,6975.4436679,232.0131778,0,0
1946,2@,1,12,51,32,42,61,21,Abstract_Concrete_6tasks_simseq_2seq_listtask_switchAB_fMRI,784426,12345,43152,4,25,145,A2,vest,2,2@,6743.4304901,6984.4425006,241.012010500001,0,0
2176,7&,1,11,51,31,41,62,21,Abstract_Concrete_6tasks_simseq_2seq_listtask_switchAB_fMRI,784426,12345,43152,4,26,146,B3,helmet,1,7&,6743.4304901,6993.4427601,250.01227,0,0
2217,8*,1,12,51,32,42,61,21,Abstract_Concrete_6tasks_simseq_2seq_listtask_switchAB_fMRI,784426,12345,43152,4,27,147,A4,weapon,5,8*,6743.4304901,7003.4428404,260.0123503,0,0
1977,2@,1,12,51,31,42,61,22,Abstract_Concrete_6tasks_simseq_2seq_listtask_switchAB_fMRI,784426,12345,43152,4,28,148,B5,vest,2,2@,6743.4304901,7013.4423393,270.0118492,0,0
2026,3#,1,11,52,31,41,62,22,Abstract_Concrete_6tasks_simseq_2seq_listtask_switchAB_fMRI,784426,12345,43152,4,29,149,A5,tools,6,3#,6743.4304901,7022.4431565,279.012666400001,0,0
2640,7&,1,12,51,32,41,61,21,Abstract_Concrete_6tasks_simseq_2seq_listtask_switchAB_fMRI,784426,12345,43152,4,30,150,B3,helmet,1,7&,6743.4304901,7032.4427762,289.0122861,0,0
2759,8*,1,11,51,32,42,61,21,Abstract_Concrete_6tasks_simseq_2seq_listtask_switchAB_fMRI,784426,12345,43152,4,31,151,A4,weapon,5,8*,6743.4304901,7042.4422437,299.011753600001,0,0
1458,8*,1,12,52,31,42,61,22,Abstract_Concrete_6tasks_simseq_2seq_listtask_switchAB_fMRI,784426,12345,43152,4,32,152,B1,weapon,5,8*,6743.4304901,7052.4407048,309.010214700001,0,0
2588,3#,1,11,52,32,41,62,21,Abstract_Concrete_6tasks_simseq_2seq_listtask_switchAB_fMRI,784426,12345,43152,4,33,153,A5,tools,6,3#,6743.4304901,7061.4436762,318.0131861,0,0
3891,3#,1,12,51,31,42,61,22,Abstract_Concrete_6tasks_simseq_2seq_listtask_switchAB_fMRI,784426,12345,43152,4,34,154,B4,tools,6,3#,6743.4304901,7071.4422179,328.011727800001,0,0
1903,7&,1,12,52,31,41,61,21,Abstract_Concrete_6tasks_simseq_2seq_listtask_switchAB_fMRI,784426,12345,43152,4,35,155,A1,helmet,1,7&,6743.4304901,7082.4420797,339.011589600001,0,0
1282,8*,1,11,52,31,41,62,21,Abstract_Concrete_6tasks_simseq_2seq_listtask_switchAB_fMRI,784426,12345,43152,4,36,156,B1,weapon,5,8*,6743.4304901,7091.4400586,348.009568500001,0,0
2822,9(,1,11,52,32,41,62,22,Abstract_Concrete_6tasks_simseq_2seq_listtask_switchAB_fMRI,784426,12345,43152,4,37,157,A3,glasses,3,9(,6743.4304901,7100.4438578,357.0133677,0,0
4878,3#,1,12,51,32,41,61,21,Abstract_Concrete_6tasks_simseq_2seq_listtask_switchAB_fMRI,784426,12345,43152,4,38,158,B4,tools,6,3#,6743.4304901,7110.4416413,367.0111512,0,0
1766,7&,1,11,52,31,42,61,22,Abstract_Concrete_6tasks_simseq_2seq_listtask_switchAB_fMRI,784426,12345,43152,4,39,159,A1,helmet,1,7&,6743.4304901,7122.4419659,379.0114758,0,0
1220,8*,1,12,52,31,42,62,22,Abstract_Concrete_6tasks_simseq_2seq_listtask_switchAB_fMRI,784426,12345,43152,4,40,160,B1,weapon,5,8*,6743.4304901,7131.4408339,388.010343800001,0,0
1559,3#,1,12,52,32,41,61,22,Abstract_Concrete_6tasks_simseq_2seq_listtask_switchAB_fMRI,784426,12345,43152,5,1,161,B4,tools,6,3#,7184.7428616,7192.75276052906,8.00989892906091,0,0
2485,4$,0,12,51,31,42,61,21,Abstract_Concrete_6tasks_simseq_2seq_listtask_switchAB_fMRI,784426,12345,43152,5,2,162,A5,tools,6,3#,7184.7428616,7201.75260791696,17.0097463169641,7204.25576618416,19.5129045841622
1405,2@,1,11,52,31,42,62,21,Abstract_Concrete_6tasks_simseq_2seq_listtask_switchAB_fMRI,784426,12345,43152,5,3,163,B5,vest,2,2@,7184.7428616,7211.75237963046,27.0095180304643,0,0
1476,3#,1,12,51,31,41,62,21,Abstract_Concrete_6tasks_simseq_2seq_listtask_switchAB_fMRI,784426,12345,43152,5,4,164,A5,tools,6,3#,7184.7428616,7220.75223718654,36.0093755865437,0,0
3277,3#,1,11,51,32,42,61,21,Abstract_Concrete_6tasks_simseq_2seq_listtask_switchAB_fMRI,784426,12345,43152,5,5,165,B4,tools,6,3#,7184.7428616,7229.75196233289,45.0091007328874,0,0
3817,9(,1,12,51,31,42,62,21,Abstract_Concrete_6tasks_simseq_2seq_listtask_switchAB_fMRI,784426,12345,43152,5,6,166,A3,glasses,3,9(,7184.7428616,7240.75180753431,56.0089459343117,0,0
2694,7&,1,12,52,32,42,61,22,Abstract_Concrete_6tasks_simseq_2seq_listtask_switchAB_fMRI,784426,12345,43152,5,7,167,B3,helmet,1,7&,7184.7428616,7251.75144831905,67.0085867190473,0,0
1054,7&,1,12,51,32,42,61,22,Abstract_Concrete_6tasks_simseq_2seq_listtask_switchAB_fMRI,784426,12345,43152,5,8,168,A1,helmet,1,7&,7184.7428616,7261.7539377,77.0110761000005,0,0
1296,8*,1,12,51,31,41,61,22,Abstract_Concrete_6tasks_simseq_2seq_listtask_switchAB_fMRI,784426,12345,43152,5,9,169,B1,weapon,5,8*,7184.7428616,7270.7537176,86.0108559999999,0,0
1651,3#,1,12,51,31,42,62,22,Abstract_Concrete_6tasks_simseq_2seq_listtask_switchAB_fMRI,784426,12345,43152,5,10,170,A5,tools,6,3#,7184.7428616,7279.7546767,95.0118151000006,0,0
1997,9(,1,12,52,31,42,61,22,Abstract_Concrete_6tasks_simseq_2seq_listtask_switchAB_fMRI,784426,12345,43152,5,11,171,B2,glasses,3,9(,7184.7428616,7288.7544763,104.0116147,0,0
2773,8*,1,11,52,32,42,61,22,Abstract_Concrete_6tasks_simseq_2seq_listtask_switchAB_fMRI,784426,12345,43152,5,12,172,A4,weapon,5,8*,7184.7428616,7298.7555468,114.0126852,0,0
1399,8*,1,12,51,31,41,62,21,Abstract_Concrete_6tasks_simseq_2seq_listtask_switchAB_fMRI,784426,12345,43152,5,13,173,B1,weapon,5,8*,7184.7428616,7308.7547449,124.011883300001,0,0
1112,7&,1,12,52,32,42,62,21,Abstract_Concrete_6tasks_simseq_2seq_listtask_switchAB_fMRI,784426,12345,43152,5,14,174,A1,helmet,1,7&,7184.7428616,7317.7561558,133.0132942,0,0
1597,2@,1,11,52,32,41,61,22,Abstract_Concrete_6tasks_simseq_2seq_listtask_switchAB_fMRI,784426,12345,43152,5,15,175,B5,vest,2,2@,7184.7428616,7326.7570516,142.01419,0,0
2285,3#,1,12,52,31,42,61,22,Abstract_Concrete_6tasks_simseq_2seq_listtask_switchAB_fMRI,784426,12345,43152,5,16,176,A5,tools,6,3#,7184.7428616,7335.7543847,151.0115231,0,0
1960,3#,1,12,52,31,41,62,22,Abstract_Concrete_6tasks_simseq_2seq_listtask_switchAB_fMRI,784426,12345,43152,5,17,177,B4,tools,6,3#,7184.7428616,7345.7562893,161.013427700001,0,0
1773,2@,1,12,52,32,41,61,21,Abstract_Concrete_6tasks_simseq_2seq_listtask_switchAB_fMRI,784426,12345,43152,5,18,178,A2,vest,2,2@,7184.7428616,7354.7542501,170.0113885,0,0
1273,8*,1,11,52,31,42,61,22,Abstract_Concrete_6tasks_simseq_2seq_listtask_switchAB_fMRI,784426,12345,43152,5,19,179,B1,weapon,5,8*,7184.7428616,7363.7542889,179.0114273,0,0
2645,8*,1,12,52,32,42,61,22,Abstract_Concrete_6tasks_simseq_2seq_listtask_switchAB_fMRI,784426,12345,43152,5,20,180,A4,weapon,5,8*,7184.7428616,7372.7549249,188.012063300001,0,0
4162,9(,1,11,52,31,42,61,21,Abstract_Concrete_6tasks_simseq_2seq_listtask_switchAB_fMRI,784426,12345,43152,5,21,181,B2,glasses,3,9(,7184.7428616,7382.7547501,198.0118885,0,0
2099,2@,1,12,51,32,42,61,21,Abstract_Concrete_6tasks_simseq_2seq_listtask_switchAB_fMRI,784426,12345,43152,5,22,182,A2,vest,2,2@,7184.7428616,7394.754276,210.0114144,0,0
1234,8*,1,11,52,31,42,61,21,Abstract_Concrete_6tasks_simseq_2seq_listtask_switchAB_fMRI,784426,12345,43152,5,23,183,B1,weapon,5,8*,7184.7428616,7404.7551864,220.0123248,0,0
2822,9(,1,12,51,32,42,61,21,Abstract_Concrete_6tasks_simseq_2seq_listtask_switchAB_fMRI,784426,12345,43152,5,24,184,A3,glasses,3,9(,7184.7428616,7413.7566819,229.013820300001,0,0
3811,7&,1,11,52,31,41,62,21,Abstract_Concrete_6tasks_simseq_2seq_listtask_switchAB_fMRI,784426,12345,43152,5,25,185,B3,helmet,1,7&,7184.7428616,7423.7546386,239.011777000001,0,0
949,9(,1,12,51,32,42,61,22,Abstract_Concrete_6tasks_simseq_2seq_listtask_switchAB_fMRI,784426,12345,43152,5,26,186,A3,glasses,3,9(,7184.7428616,7434.7560973,250.0132357,0,0
3025,9(,1,12,51,31,42,61,21,Abstract_Concrete_6tasks_simseq_2seq_listtask_switchAB_fMRI,784426,12345,43152,5,27,187,B2,glasses,3,9(,7184.7428616,7442.7534069,258.010545300001,0,0
3361,9(,1,11,52,32,41,61,22,Abstract_Concrete_6tasks_simseq_2seq_listtask_switchAB_fMRI,784426,12345,43152,5,28,188,A3,glasses,3,9(,7184.7428616,7453.7551756,269.012314000001,0,0
1457,2@,1,12,51,31,42,62,22,Abstract_Concrete_6tasks_simseq_2seq_listtask_switchAB_fMRI,784426,12345,43152,5,29,189,B5,vest,2,2@,7184.7428616,7464.7547161,280.0118545,0,0
1652,8*,1,12,51,32,42,61,22,Abstract_Concrete_6tasks_simseq_2seq_listtask_switchAB_fMRI,784426,12345,43152,5,30,190,A4,weapon,5,8*,7184.7428616,7473.7548104,289.0119488,0,0
1633,2@,1,12,51,31,42,62,22,Abstract_Concrete_6tasks_simseq_2seq_listtask_switchAB_fMRI,784426,12345,43152,5,31,191,B5,vest,2,2@,7184.7428616,7482.7527449,298.0098833,0,0
1656,8*,1,11,51,32,41,62,22,Abstract_Concrete_6tasks_simseq_2seq_listtask_switchAB_fMRI,784426,12345,43152,5,32,192,A4,weapon,5,8*,7184.7428616,7491.7546436,307.011782,0,0
2352,7&,1,12,51,32,42,61,21,Abstract_Concrete_6tasks_simseq_2seq_listtask_switchAB_fMRI,784426,12345,43152,5,33,193,B3,helmet,1,7&,7184.7428616,7500.754358,316.0114964,0,0
2541,2@,1,12,51,32,41,61,21,Abstract_Concrete_6tasks_simseq_2seq_listtask_switchAB_fMRI,784426,12345,43152,5,34,194,A2,vest,2,2@,7184.7428616,7510.7554192,326.0125576,0,0
2922,9(,1,11,51,32,41,62,21,Abstract_Concrete_6tasks_simseq_2seq_listtask_switchAB_fMRI,784426,12345,43152,5,35,195,B2,glasses,3,9(,7184.7428616,7520.7533357,336.0104741,0,0
1141,7&,1,12,52,32,42,62,21,Abstract_Concrete_6tasks_simseq_2seq_listtask_switchAB_fMRI,784426,12345,43152,5,36,196,A1,helmet,1,7&,7184.7428616,7530.7543268,346.0114652,0,0
3349,3#,1,12,52,32,42,62,21,Abstract_Concrete_6tasks_simseq_2seq_listtask_switchAB_fMRI,784426,12345,43152,5,37,197,B4,tools,6,3#,7184.7428616,7539.7546808,355.0118192,0,0
1988,2@,1,12,52,32,41,62,21,Abstract_Concrete_6tasks_simseq_2seq_listtask_switchAB_fMRI,784426,12345,43152,5,38,198,A2,vest,2,2@,7184.7428616,7550.7559531,366.0130915,0,0
3757,7&,1,11,52,31,41,62,21,Abstract_Concrete_6tasks_simseq_2seq_listtask_switchAB_fMRI,784426,12345,43152,5,39,199,B3,helmet,1,7&,7184.7428616,7560.7547231,376.0118615,0,0
1065,7&,1,12,52,32,41,61,22,Abstract_Concrete_6tasks_simseq_2seq_listtask_switchAB_fMRI,784426,12345,43152,5,40,200,A1,helmet,1,7&,7184.7428616,7571.7540785,387.0112169,0,0
1094,7&,1,12,52,32,41,62,21,Abstract_Concrete_6tasks_simseq_2seq_listtask_switchAB_fMRI,784426,12345,43152,6,1,201,A1,helmet,1,7&,7639.7516085,7647.7616452,8.01003670000046,0,0
1784,3#,1,12,51,32,42,62,22,Abstract_Concrete_6tasks_simseq_2seq_listtask_switchAB_fMRI,784426,12345,43152,6,2,202,B4,tools,6,3#,7639.7516085,7656.7631493,17.0115408000001,0,0
2270,8*,1,11,52,32,41,61,22,Abstract_Concrete_6tasks_simseq_2seq_listtask_switchAB_fMRI,784426,12345,43152,6,3,203,A4,weapon,5,8*,7639.7516085,7665.7637606,26.0121521000001,0,0
1210,8*,1,12,52,31,41,61,22,Abstract_Concrete_6tasks_simseq_2seq_listtask_switchAB_fMRI,784426,12345,43152,6,4,204,B1,weapon,5,8*,7639.7516085,7675.763143,36.0115345000004,0,0
2159,2@,1,12,52,32,42,61,22,Abstract_Concrete_6tasks_simseq_2seq_listtask_switchAB_fMRI,784426,12345,43152,6,5,205,A2,vest,2,2@,7639.7516085,7684.7639059,45.0122974000005,0,0
2442,9(,1,11,52,31,42,61,21,Abstract_Concrete_6tasks_simseq_2seq_listtask_switchAB_fMRI,784426,12345,43152,6,6,206,B2,glasses,3,9(,7639.7516085,7694.7641513,55.0125428000001,0,0
2216,3#,1,11,52,32,42,62,21,Abstract_Concrete_6tasks_simseq_2seq_listtask_switchAB_fMRI,784426,12345,43152,6,7,207,A5,tools,6,3#,7639.7516085,7704.7634536,65.0118450999998,0,0
1403,2@,1,11,52,32,41,62,22,Abstract_Concrete_6tasks_simseq_2seq_listtask_switchAB_fMRI,784426,12345,43152,6,8,208,B5,vest,2,2@,7639.7516085,7714.7640774,75.0124689000004,0,0
4945,9(,1,11,52,31,41,61,21,Abstract_Concrete_6tasks_simseq_2seq_listtask_switchAB_fMRI,784426,12345,43152,6,9,209,A3,glasses,3,9(,7639.7516085,7723.7638239,84.0122154000001,0,0
2590,2@,1,12,51,31,41,62,22,Abstract_Concrete_6tasks_simseq_2seq_listtask_switchAB_fMRI,784426,12345,43152,6,10,210,B5,vest,2,2@,7639.7516085,7735.7624695,96.0108610000007,0,0
2055,3#,1,11,52,32,41,61,22,Abstract_Concrete_6tasks_simseq_2seq_listtask_switchAB_fMRI,784426,12345,43152,6,11,211,A5,tools,6,3#,7639.7516085,7745.764576,106.0129675,0,0
1110,8*,1,11,51,32,41,62,22,Abstract_Concrete_6tasks_simseq_2seq_listtask_switchAB_fMRI,784426,12345,43152,6,12,212,B1,weapon,5,8*,7639.7516085,7755.7635343,116.0119258,0,0
1445,3#,1,12,52,32,42,61,22,Abstract_Concrete_6tasks_simseq_2seq_listtask_switchAB_fMRI,784426,12345,43152,6,13,213,A5,tools,6,3#,7639.7516085,7764.764986,125.0133775,0,0
1410,8*,1,11,51,31,41,61,21,Abstract_Concrete_6tasks_simseq_2seq_listtask_switchAB_fMRI,784426,12345,43152,6,14,214,B1,weapon,5,8*,7639.7516085,7773.7641159,134.012507400001,0,0
3884,8*,1,12,51,32,42,61,21,Abstract_Concrete_6tasks_simseq_2seq_listtask_switchAB_fMRI,784426,12345,43152,6,15,215,A4,weapon,5,8*,7639.7516085,7782.7681381,143.0165296,0,0
3358,7&,1,11,52,32,42,62,21,Abstract_Concrete_6tasks_simseq_2seq_listtask_switchAB_fMRI,784426,12345,43152,6,16,216,B3,helmet,1,7&,7639.7516085,7793.7626387,154.0110302,0,0
3637,8*,1,12,51,32,41,61,21,Abstract_Concrete_6tasks_simseq_2seq_listtask_switchAB_fMRI,784426,12345,43152,6,17,217,A4,weapon,5,8*,7639.7516085,7804.764426,165.0128175,0,0
3380,7&,1,11,52,32,42,62,22,Abstract_Concrete_6tasks_simseq_2seq_listtask_switchAB_fMRI,784426,12345,43152,6,18,218,B3,helmet,1,7&,7639.7516085,7815.7625089,176.010900400001,0,0
3374,2@,1,11,51,31,42,62,22,Abstract_Concrete_6tasks_simseq_2seq_listtask_switchAB_fMRI,784426,12345,43152,6,19,219,A2,vest,2,2@,7639.7516085,7826.7638819,187.012273400001,0,0
2257,7&,1,12,52,32,42,61,22,Abstract_Concrete_6tasks_simseq_2seq_listtask_switchAB_fMRI,784426,12345,43152,6,20,220,B3,helmet,1,7&,7639.7516085,7837.7634972,198.0118887,0,0
1259,8*,1,11,51,32,42,61,22,Abstract_Concrete_6tasks_simseq_2seq_listtask_switchAB_fMRI,784426,12345,43152,6,21,221,A4,weapon,5,8*,7639.7516085,7847.7656891,208.0140806,0,0
2116,9(,1,12,51,32,41,62,22,Abstract_Concrete_6tasks_simseq_2seq_listtask_switchAB_fMRI,784426,12345,43152,6,22,222,B2,glasses,3,9(,7639.7516085,7856.7637548,217.0121463,0,0
2700,9(,1,12,52,32,42,61,21,Abstract_Concrete_6tasks_simseq_2seq_listtask_switchAB_fMRI,784426,12345,43152,6,23,223,A3,glasses,3,9(,7639.7516085,7866.7632349,227.0116264,0,0
2779,9(,1,12,51,32,41,61,22,Abstract_Concrete_6tasks_simseq_2seq_listtask_switchAB_fMRI,784426,12345,43152,6,24,224,B2,glasses,3,9(,7639.7516085,7876.7628117,237.011203200001,0,0
4243,9(,1,11,51,32,41,61,21,Abstract_Concrete_6tasks_simseq_2seq_listtask_switchAB_fMRI,784426,12345,43152,6,25,225,A3,glasses,3,9(,7639.7516085,7886.7634287,247.0118202,0,0
1795,3#,1,11,51,32,41,62,22,Abstract_Concrete_6tasks_simseq_2seq_listtask_switchAB_fMRI,784426,12345,43152,6,26,226,B4,tools,6,3#,7639.7516085,7898.7634594,259.0118509,0,0
1805,3#,1,11,51,31,41,61,22,Abstract_Concrete_6tasks_simseq_2seq_listtask_switchAB_fMRI,784426,12345,43152,6,27,227,A5,tools,6,3#,7639.7516085,7907.7619493,268.0103408,0,0
2431,2@,1,11,51,32,42,61,22,Abstract_Concrete_6tasks_simseq_2seq_listtask_switchAB_fMRI,784426,12345,43152,6,28,228,B5,vest,2,2@,7639.7516085,7916.7626226,277.0110141,0,0
2634,9(,0,12,51,32,42,61,22,Abstract_Concrete_6tasks_simseq_2seq_listtask_switchAB_fMRI,784426,12345,43152,6,29,229,A2,vest,2,2@,7639.7516085,7926.762338,287.010729500001,7929.4109886,289.6593801
2064,9(,1,11,52,31,42,61,21,Abstract_Concrete_6tasks_simseq_2seq_listtask_switchAB_fMRI,784426,12345,43152,6,30,230,B2,glasses,3,9(,7639.7516085,7936.7620168,297.010408300001,0,0
1295,7&,1,12,52,32,42,61,22,Abstract_Concrete_6tasks_simseq_2seq_listtask_switchAB_fMRI,784426,12345,43152,6,31,231,A1,helmet,1,7&,7639.7516085,7946.7630835,307.011475,0,0
1526,3#,1,12,52,31,41,62,21,Abstract_Concrete_6tasks_simseq_2seq_listtask_switchAB_fMRI,784426,12345,43152,6,32,232,B4,tools,6,3#,7639.7516085,7955.7650177,316.0134092,0,0
4110,9(,1,11,51,31,41,61,21,Abstract_Concrete_6tasks_simseq_2seq_listtask_switchAB_fMRI,784426,12345,43152,6,33,233,A3,glasses,3,9(,7639.7516085,7964.7629025,325.011294,0,0
7050,7&,1,12,52,32,42,62,22,Abstract_Concrete_6tasks_simseq_2seq_listtask_switchAB_fMRI,784426,12345,43152,6,34,234,B3,helmet,1,7&,7639.7516085,7976.7630381,337.0114296,0,0
1075,7&,1,12,51,31,42,61,22,Abstract_Concrete_6tasks_simseq_2seq_listtask_switchAB_fMRI,784426,12345,43152,6,35,235,A1,helmet,1,7&,7639.7516085,7991.7631502,352.011541700001,0,0
3071,2@,1,11,52,32,41,62,21,Abstract_Concrete_6tasks_simseq_2seq_listtask_switchAB_fMRI,784426,12345,43152,6,36,236,B5,vest,2,2@,7639.7516085,8000.7639729,361.0123644,0,0
2106,2@,1,12,52,32,41,62,22,Abstract_Concrete_6tasks_simseq_2seq_listtask_switchAB_fMRI,784426,12345,43152,6,37,237,A2,vest,2,2@,7639.7516085,8011.7649982,372.013389700001,0,0
2075,3#,1,11,51,32,41,61,22,Abstract_Concrete_6tasks_simseq_2seq_listtask_switchAB_fMRI,784426,12345,43152,6,38,238,B4,tools,6,3#,7639.7516085,8021.7645094,382.0129009,0,0
978,7&,1,12,51,31,41,62,21,Abstract_Concrete_6tasks_simseq_2seq_listtask_switchAB_fMRI,784426,12345,43152,6,39,239,A1,helmet,1,7&,7639.7516085,8031.7642454,392.0126369,0,0
1268,8*,1,12,52,32,41,61,21,Abstract_Concrete_6tasks_simseq_2seq_listtask_switchAB_fMRI,784426,12345,43152,6,40,240,B1,weapon,5,8*,7639.7516085,8039.7621708,400.0105623,0,0
