rt1,resp1,correct1,features_1,features_2,features_3,features_4,features_5,features_6,ExpName,subNo,seqA,seqB,block,trial,trialnum,cuetype,task,subtaskcode,corr_resp1,onsetTime_s,onsetTime_cue,onset_cue,onsetTime_cue_fb,onset_cue_fb
2869,7&,1,62,11,32,22,51,41,Abstract_Concrete_6tasks_simseq_2seq_listtask_switchAB_fMRI,800290,32154,51342,1,1,1,B1,tools,6,7&,78576.8270875,78584.8387605,8.01167300000088,0,0
8137,4$,0,62,11,32,21,52,42,Abstract_Concrete_6tasks_simseq_2seq_listtask_switchAB_fMRI,800290,32154,51342,1,2,2,A5,weapon,5,3#,78576.8270875,78594.839654,18.0125664999941,78603.0003827,26.173295200002
0,,0,61,11,31,21,52,42,Abstract_Concrete_6tasks_simseq_2seq_listtask_switchAB_fMRI,800290,32154,51342,1,3,3,B4,weapon,5,3#,78576.8270875,78610.8362857,34.0091982000013,78619.8923773,43.0652897999971
7719,7&,1,61,11,31,22,52,42,Abstract_Concrete_6tasks_simseq_2seq_listtask_switchAB_fMRI,800290,32154,51342,1,4,4,A4,tools,6,7&,78576.8270875,78627.8377797,51.0106921999977,0,0
8841,3#,1,62,11,31,22,52,42,Abstract_Concrete_6tasks_simseq_2seq_listtask_switchAB_fMRI,800290,32154,51342,1,5,5,B4,weapon,5,3#,78576.8270875,78642.8391735,66.0120860000025,0,0
6369,8*,1,61,11,32,21,51,41,Abstract_Concrete_6tasks_simseq_2seq_listtask_switchAB_fMRI,800290,32154,51342,1,6,6,A3,helmet,1,8*,78576.8270875,78658.8390505,82.0119629999972,0,0
2513,7&,1,62,12,31,21,51,42,Abstract_Concrete_6tasks_simseq_2seq_listtask_switchAB_fMRI,800290,32154,51342,1,7,7,B1,tools,6,7&,78576.8270875,78672.840465,96.0133774999995,0,0
6351,4$,0,61,11,31,21,52,41,Abstract_Concrete_6tasks_simseq_2seq_listtask_switchAB_fMRI,800290,32154,51342,1,8,8,A5,weapon,5,3#,78576.8270875,78682.8398656,106.012778100005,78689.2064432,112.379355700003
5849,9(,1,61,12,32,21,52,41,Abstract_Concrete_6tasks_simseq_2seq_listtask_switchAB_fMRI,800290,32154,51342,1,9,9,B3,glasses,3,9(,78576.8270875,78696.8397348,120.012647299998,0,0
3341,3#,1,62,12,32,21,51,41,Abstract_Concrete_6tasks_simseq_2seq_listtask_switchAB_fMRI,800290,32154,51342,1,10,10,A5,weapon,5,3#,78576.8270875,78709.8392408,133.012153300006,0,0
6454,9(,1,62,11,32,22,52,42,Abstract_Concrete_6tasks_simseq_2seq_listtask_switchAB_fMRI,800290,32154,51342,1,11,11,B3,glasses,3,9(,78576.8270875,78720.839879,144.012791500005,0,0
7316,4$,1,62,11,32,21,51,42,Abstract_Concrete_6tasks_simseq_2seq_listtask_switchAB_fMRI,800290,32154,51342,1,12,12,A2,vest,2,4$,78576.8270875,78734.8407143,158.013626799991,0,0
5562,8*,1,62,11,31,22,52,42,Abstract_Concrete_6tasks_simseq_2seq_listtask_switchAB_fMRI,800290,32154,51342,1,13,13,B2,helmet,1,8*,78576.8270875,78749.8431789,173.016091400001,0,0
3610,9(,1,61,11,32,21,51,41,Abstract_Concrete_6tasks_simseq_2seq_listtask_switchAB_fMRI,800290,32154,51342,1,14,14,A1,glasses,3,9(,78576.8270875,78762.8395981,186.012510600005,0,0
0,,0,62,11,31,21,52,41,Abstract_Concrete_6tasks_simseq_2seq_listtask_switchAB_fMRI,800290,32154,51342,1,15,15,B5,vest,2,4$,78576.8270875,78773.8391529,197.012065399991,78782.8581552,206.031067699994
5731,8*,1,62,12,32,21,52,42,Abstract_Concrete_6tasks_simseq_2seq_listtask_switchAB_fMRI,800290,32154,51342,1,16,16,A3,helmet,1,8*,78576.8270875,78790.8385629,214.011475399995,0,0
7127,9(,0,62,12,32,22,51,42,Abstract_Concrete_6tasks_simseq_2seq_listtask_switchAB_fMRI,800290,32154,51342,1,17,17,B2,helmet,1,8*,78576.8270875,78803.8389648,227.011877299999,78810.9830301,234.155942600002
4599,8*,1,61,11,32,21,52,42,Abstract_Concrete_6tasks_simseq_2seq_listtask_switchAB_fMRI,800290,32154,51342,1,18,18,A3,helmet,1,8*,78576.8270875,78818.8382229,242.011135399996,0,0
5750,9(,0,62,11,31,21,51,41,Abstract_Concrete_6tasks_simseq_2seq_listtask_switchAB_fMRI,800290,32154,51342,1,19,19,B4,weapon,5,3#,78576.8270875,78830.8388991,254.011811599994,78836.6018193,259.774731800004
3530,8*,1,62,12,31,22,51,42,Abstract_Concrete_6tasks_simseq_2seq_listtask_switchAB_fMRI,800290,32154,51342,1,20,20,A3,helmet,1,8*,78576.8270875,78843.8368012,267.009713699998,0,0
7084,9(,1,62,12,31,21,51,42,Abstract_Concrete_6tasks_simseq_2seq_listtask_switchAB_fMRI,800290,32154,51342,1,21,21,B3,glasses,3,9(,78576.8270875,78854.8395652,278.012477700002,0,0
4695,3#,1,61,12,31,22,51,41,Abstract_Concrete_6tasks_simseq_2seq_listtask_switchAB_fMRI,800290,32154,51342,1,22,22,A5,weapon,5,3#,78576.8270875,78869.839065,293.011977499991,0,0
4865,8*,1,61,11,32,22,51,42,Abstract_Concrete_6tasks_simseq_2seq_listtask_switchAB_fMRI,800290,32154,51342,1,23,23,B2,helmet,1,8*,78576.8270875,78881.8375966,305.0105091,0,0
6666,4$,1,62,11,31,22,51,42,Abstract_Concrete_6tasks_simseq_2seq_listtask_switchAB_fMRI,800290,32154,51342,1,24,24,A2,vest,2,4$,78576.8270875,78893.8403166,317.013229100005,0,0
4482,4$,1,61,11,31,22,51,41,Abstract_Concrete_6tasks_simseq_2seq_listtask_switchAB_fMRI,800290,32154,51342,1,25,25,B5,vest,2,4$,78576.8270875,78907.8366477,331.009560199993,0,0
0,,0,61,12,31,22,52,42,Abstract_Concrete_6tasks_simseq_2seq_listtask_switchAB_fMRI,800290,32154,51342,1,26,26,A4,tools,6,7&,78576.8270875,78919.8373269,343.010239399999,78928.8533767,352.026289200003
3676,4$,1,61,11,32,22,51,42,Abstract_Concrete_6tasks_simseq_2seq_listtask_switchAB_fMRI,800290,32154,51342,1,27,27,B5,vest,2,4$,78576.8270875,78936.8398936,360.0128061,0,0
3566,9(,1,62,12,32,22,52,41,Abstract_Concrete_6tasks_simseq_2seq_listtask_switchAB_fMRI,800290,32154,51342,1,28,28,A1,glasses,3,9(,78576.8270875,78947.8375051,371.010417600002,0,0
7803,3#,1,62,11,31,21,51,41,Abstract_Concrete_6tasks_simseq_2seq_listtask_switchAB_fMRI,800290,32154,51342,1,29,29,B4,weapon,5,3#,78576.8270875,78958.8396747,382.012587199992,0,0
6897,4$,1,62,12,31,22,52,42,Abstract_Concrete_6tasks_simseq_2seq_listtask_switchAB_fMRI,800290,32154,51342,1,30,30,A2,vest,2,4$,78576.8270875,78973.8381199,397.011032399998,0,0
3548,7&,1,61,11,32,21,52,41,Abstract_Concrete_6tasks_simseq_2seq_listtask_switchAB_fMRI,800290,32154,51342,1,31,31,B1,tools,6,7&,78576.8270875,78987.8397558,411.012668299998,0,0
5752,4$,1,62,11,32,22,52,42,Abstract_Concrete_6tasks_simseq_2seq_listtask_switchAB_fMRI,800290,32154,51342,1,32,32,A2,vest,2,4$,78576.8270875,78998.8386919,422.011604400002,0,0
4417,8*,1,62,12,31,22,51,42,Abstract_Concrete_6tasks_simseq_2seq_listtask_switchAB_fMRI,800290,32154,51342,1,33,33,B2,helmet,1,8*,78576.8270875,79011.8385879,435.011500399996,0,0
4778,9(,1,61,11,31,21,52,41,Abstract_Concrete_6tasks_simseq_2seq_listtask_switchAB_fMRI,800290,32154,51342,1,34,34,A1,glasses,3,9(,78576.8270875,79023.8383775,447.011289999995,0,0
2075,3#,0,62,11,31,21,51,41,Abstract_Concrete_6tasks_simseq_2seq_listtask_switchAB_fMRI,800290,32154,51342,1,35,35,B5,vest,2,4$,78576.8270875,79035.8383829,459.011295399992,79037.924062,461.096974500004
6574,3#,0,61,11,32,21,52,42,Abstract_Concrete_6tasks_simseq_2seq_listtask_switchAB_fMRI,800290,32154,51342,1,36,36,A4,tools,6,7&,78576.8270875,79045.8387177,469.011630199995,79052.4260976,475.599010099992
6055,9(,1,61,12,32,22,52,42,Abstract_Concrete_6tasks_simseq_2seq_listtask_switchAB_fMRI,800290,32154,51342,1,37,37,B3,glasses,3,9(,78576.8270875,79059.8378862,483.010798699994,0,0
6858,7&,1,61,11,32,22,51,42,Abstract_Concrete_6tasks_simseq_2seq_listtask_switchAB_fMRI,800290,32154,51342,1,38,38,A4,tools,6,7&,78576.8270875,79073.838831,497.011743499999,0,0
2756,7&,1,61,11,32,22,52,41,Abstract_Concrete_6tasks_simseq_2seq_listtask_switchAB_fMRI,800290,32154,51342,1,39,39,B1,tools,6,7&,78576.8270875,79087.8380032,511.010915699997,0,0
3080,9(,1,61,11,31,21,52,42,Abstract_Concrete_6tasks_simseq_2seq_listtask_switchAB_fMRI,800290,32154,51342,1,40,40,A1,glasses,3,9(,78576.8270875,79097.8386823,521.011594800002,0,0
3345,9(,1,61,12,32,21,51,41,Abstract_Concrete_6tasks_simseq_2seq_listtask_switchAB_fMRI,800290,32154,51342,2,1,41,A1,glasses,3,9(,79886.9836447,79894.9935706,8.00992589999805,0,0
5985,3#,1,61,11,31,22,52,41,Abstract_Concrete_6tasks_simseq_2seq_listtask_switchAB_fMRI,800290,32154,51342,2,2,42,B4,weapon,5,3#,79886.9836447,79905.9936377,19.0099929999997,0,0
4866,8*,1,62,12,32,22,52,42,Abstract_Concrete_6tasks_simseq_2seq_listtask_switchAB_fMRI,800290,32154,51342,2,3,43,A3,helmet,1,8*,79886.9836447,79918.9955078,32.0118631000078,0,0
4745,7&,1,61,11,32,22,51,42,Abstract_Concrete_6tasks_simseq_2seq_listtask_switchAB_fMRI,800290,32154,51342,2,4,44,B1,tools,6,7&,79886.9836447,79930.9953372,44.0116925000038,0,0
5887,7&,1,61,11,32,21,51,42,Abstract_Concrete_6tasks_simseq_2seq_listtask_switchAB_fMRI,800290,32154,51342,2,5,45,A4,tools,6,7&,79886.9836447,79942.994698,56.011053299997,0,0
7282,3#,1,62,11,32,21,52,41,Abstract_Concrete_6tasks_simseq_2seq_listtask_switchAB_fMRI,800290,32154,51342,2,6,46,B4,weapon,5,3#,79886.9836447,79955.9944571,69.0108123999962,0,0
2801,9(,1,62,12,31,22,51,42,Abstract_Concrete_6tasks_simseq_2seq_listtask_switchAB_fMRI,800290,32154,51342,2,7,47,A1,glasses,3,9(,79886.9836447,79970.9972744,84.013629699999,0,0
7829,8*,1,61,12,31,21,52,42,Abstract_Concrete_6tasks_simseq_2seq_listtask_switchAB_fMRI,800290,32154,51342,2,8,48,B2,helmet,1,8*,79886.9836447,79980.9971555,94.0135107999959,0,0
8131,4$,1,62,12,32,22,52,42,Abstract_Concrete_6tasks_simseq_2seq_listtask_switchAB_fMRI,800290,32154,51342,2,9,49,A2,vest,2,4$,79886.9836447,79995.9953615,109.0117168,0,0
2190,7&,1,61,12,31,22,51,41,Abstract_Concrete_6tasks_simseq_2seq_listtask_switchAB_fMRI,800290,32154,51342,2,10,50,B1,tools,6,7&,79886.9836447,80011.9960183,125.012373599995,0,0
2980,8*,1,61,12,31,22,51,42,Abstract_Concrete_6tasks_simseq_2seq_listtask_switchAB_fMRI,800290,32154,51342,2,11,51,A3,helmet,1,8*,79886.9836447,80021.9949727,135.011328000008,0,0
8177,3#,1,61,12,31,22,51,41,Abstract_Concrete_6tasks_simseq_2seq_listtask_switchAB_fMRI,800290,32154,51342,2,12,52,B4,weapon,5,3#,79886.9836447,80031.9945875,145.0109428,0,0
3925,3#,1,62,12,31,22,52,42,Abstract_Concrete_6tasks_simseq_2seq_listtask_switchAB_fMRI,800290,32154,51342,2,13,53,A5,weapon,5,3#,79886.9836447,80047.9975841,161.0139394,0,0
0,,0,61,11,32,21,52,42,Abstract_Concrete_6tasks_simseq_2seq_listtask_switchAB_fMRI,800290,32154,51342,2,14,54,B4,weapon,5,3#,79886.9836447,80058.9949357,172.011291000003,80068.0237234,181.040078699996
3523,8*,1,61,12,31,21,51,42,Abstract_Concrete_6tasks_simseq_2seq_listtask_switchAB_fMRI,800290,32154,51342,2,15,55,A3,helmet,1,8*,79886.9836447,80075.9946274,189.010982699998,0,0
2171,4$,1,61,12,31,21,51,42,Abstract_Concrete_6tasks_simseq_2seq_listtask_switchAB_fMRI,800290,32154,51342,2,16,56,B5,vest,2,4$,79886.9836447,80086.9957963,200.012151600007,0,0
2635,3#,1,61,11,31,22,51,42,Abstract_Concrete_6tasks_simseq_2seq_listtask_switchAB_fMRI,800290,32154,51342,2,17,57,A5,weapon,5,3#,79886.9836447,80096.9954302,210.011785499999,0,0
1945,7&,1,61,12,32,21,51,41,Abstract_Concrete_6tasks_simseq_2seq_listtask_switchAB_fMRI,800290,32154,51342,2,18,58,B1,tools,6,7&,79886.9836447,80106.9975354,220.013890700007,0,0
6915,4$,1,62,12,31,21,51,42,Abstract_Concrete_6tasks_simseq_2seq_listtask_switchAB_fMRI,800290,32154,51342,2,19,59,A2,vest,2,4$,79886.9836447,80115.993877,229.010232300003,0,0
4452,8*,1,61,12,32,22,51,42,Abstract_Concrete_6tasks_simseq_2seq_listtask_switchAB_fMRI,800290,32154,51342,2,20,60,B2,helmet,1,8*,79886.9836447,80129.9948051,243.011160399998,0,0
1954,9(,1,61,11,32,22,51,42,Abstract_Concrete_6tasks_simseq_2seq_listtask_switchAB_fMRI,800290,32154,51342,2,21,61,A1,glasses,3,9(,79886.9836447,80141.9970359,255.013391200002,0,0
2739,4$,1,62,12,31,21,52,42,Abstract_Concrete_6tasks_simseq_2seq_listtask_switchAB_fMRI,800290,32154,51342,2,22,62,B5,vest,2,4$,79886.9836447,80150.9956483,264.012003600001,0,0
4637,4$,1,61,12,32,21,51,41,Abstract_Concrete_6tasks_simseq_2seq_listtask_switchAB_fMRI,800290,32154,51342,2,23,63,A2,vest,2,4$,79886.9836447,80160.9955107,274.011866000001,0,0
3252,9(,1,62,11,31,22,52,42,Abstract_Concrete_6tasks_simseq_2seq_listtask_switchAB_fMRI,800290,32154,51342,2,24,64,B3,glasses,3,9(,79886.9836447,80172.9942702,286.010625499999,0,0
0,,0,61,11,32,22,51,42,Abstract_Concrete_6tasks_simseq_2seq_listtask_switchAB_fMRI,800290,32154,51342,2,25,65,A3,helmet,1,8*,79886.9836447,80183.9953414,297.011696700007,80193.0144111,306.030766399999
6992,8*,1,62,12,32,22,51,42,Abstract_Concrete_6tasks_simseq_2seq_listtask_switchAB_fMRI,800290,32154,51342,2,26,66,B2,helmet,1,8*,79886.9836447,80200.9945559,314.010911200006,0,0
6040,7&,1,62,12,32,22,51,42,Abstract_Concrete_6tasks_simseq_2seq_listtask_switchAB_fMRI,800290,32154,51342,2,27,67,A4,tools,6,7&,79886.9836447,80215.9975351,329.013890400005,0,0
7572,8*,1,61,12,32,22,51,41,Abstract_Concrete_6tasks_simseq_2seq_listtask_switchAB_fMRI,800290,32154,51342,2,28,68,B2,helmet,1,8*,79886.9836447,80229.9956859,343.012041199996,0,0
3584,4$,1,62,11,32,22,51,41,Abstract_Concrete_6tasks_simseq_2seq_listtask_switchAB_fMRI,800290,32154,51342,2,29,69,A2,vest,2,4$,79886.9836447,80244.9952019,358.011557200007,0,0
7732,4$,1,61,12,31,21,52,41,Abstract_Concrete_6tasks_simseq_2seq_listtask_switchAB_fMRI,800290,32154,51342,2,30,70,B5,vest,2,4$,79886.9836447,80255.9946587,369.011014000003,0,0
4633,7&,1,62,11,31,21,52,42,Abstract_Concrete_6tasks_simseq_2seq_listtask_switchAB_fMRI,800290,32154,51342,2,31,71,A4,tools,6,7&,79886.9836447,80270.9939859,384.010341200003,0,0
5343,9(,1,62,11,32,21,51,41,Abstract_Concrete_6tasks_simseq_2seq_listtask_switchAB_fMRI,800290,32154,51342,2,32,72,B3,glasses,3,9(,79886.9836447,80282.9978373,396.014192600007,0,0
4309,3#,1,61,12,32,21,51,41,Abstract_Concrete_6tasks_simseq_2seq_listtask_switchAB_fMRI,800290,32154,51342,2,33,73,A5,weapon,5,3#,79886.9836447,80295.9971891,409.013544400004,0,0
2957,9(,1,62,12,31,21,51,42,Abstract_Concrete_6tasks_simseq_2seq_listtask_switchAB_fMRI,800290,32154,51342,2,34,74,B3,glasses,3,9(,79886.9836447,80307.9950611,421.011416399997,0,0
1662,9(,1,61,11,31,22,52,41,Abstract_Concrete_6tasks_simseq_2seq_listtask_switchAB_fMRI,800290,32154,51342,2,35,75,A1,glasses,3,9(,79886.9836447,80317.9946644,431.011019700003,0,0
2993,7&,1,61,11,31,21,52,42,Abstract_Concrete_6tasks_simseq_2seq_listtask_switchAB_fMRI,800290,32154,51342,2,36,76,B1,tools,6,7&,79886.9836447,80326.9954985,440.011853799995,0,0
4723,7&,1,61,11,31,22,51,42,Abstract_Concrete_6tasks_simseq_2seq_listtask_switchAB_fMRI,800290,32154,51342,2,37,77,A4,tools,6,7&,79886.9836447,80337.9955201,451.0118754,0,0
1634,4$,1,62,11,32,22,52,42,Abstract_Concrete_6tasks_simseq_2seq_listtask_switchAB_fMRI,800290,32154,51342,2,38,78,B5,vest,2,4$,79886.9836447,80349.994108,463.010463300001,0,0
3014,3#,1,62,11,31,21,52,42,Abstract_Concrete_6tasks_simseq_2seq_listtask_switchAB_fMRI,800290,32154,51342,2,39,79,A5,weapon,5,3#,79886.9836447,80358.9942042,472.010559500006,0,0
4681,9(,1,61,11,32,22,51,41,Abstract_Concrete_6tasks_simseq_2seq_listtask_switchAB_fMRI,800290,32154,51342,2,40,80,B3,glasses,3,9(,79886.9836447,80369.9963267,483.012682,0,0
5175,4$,1,62,11,32,21,52,42,Abstract_Concrete_6tasks_simseq_2seq_listtask_switchAB_fMRI,800290,32154,51342,3,1,81,B5,vest,2,4$,80486.8163322,80494.8261883,8.00985609999043,0,0
4335,9(,1,62,11,31,21,51,42,Abstract_Concrete_6tasks_simseq_2seq_listtask_switchAB_fMRI,800290,32154,51342,3,2,82,A1,glasses,3,9(,80486.8163322,80507.8292978,21.0129655999917,0,0
2432,4$,1,61,11,31,21,52,41,Abstract_Concrete_6tasks_simseq_2seq_listtask_switchAB_fMRI,800290,32154,51342,3,3,83,B5,vest,2,4$,80486.8163322,80519.82988,33.0135478000011,0,0
2651,3#,1,62,12,31,21,52,41,Abstract_Concrete_6tasks_simseq_2seq_listtask_switchAB_fMRI,800290,32154,51342,3,4,84,A5,weapon,5,3#,80486.8163322,80529.8270777,43.0107454999961,0,0
4251,7&,1,61,11,32,21,52,42,Abstract_Concrete_6tasks_simseq_2seq_listtask_switchAB_fMRI,800290,32154,51342,3,5,85,B1,tools,6,7&,80486.8163322,80539.8283016,53.0119694000023,0,0
2704,7&,1,61,12,32,22,52,41,Abstract_Concrete_6tasks_simseq_2seq_listtask_switchAB_fMRI,800290,32154,51342,3,6,86,A4,tools,6,7&,80486.8163322,80551.8287425,65.012410299998,0,0
3955,9(,1,62,11,32,22,51,42,Abstract_Concrete_6tasks_simseq_2seq_listtask_switchAB_fMRI,800290,32154,51342,3,7,87,B3,glasses,3,9(,80486.8163322,80561.8283335,75.0120012999978,0,0
6264,9(,1,61,11,32,21,51,42,Abstract_Concrete_6tasks_simseq_2seq_listtask_switchAB_fMRI,800290,32154,51342,3,8,88,A1,glasses,3,9(,80486.8163322,80572.827139,86.0108067999972,0,0
3131,9(,1,61,11,32,22,52,42,Abstract_Concrete_6tasks_simseq_2seq_listtask_switchAB_fMRI,800290,32154,51342,3,9,89,B3,glasses,3,9(,80486.8163322,80586.8305282,100.014195999989,0,0
2260,7&,1,62,11,32,22,51,42,Abstract_Concrete_6tasks_simseq_2seq_listtask_switchAB_fMRI,800290,32154,51342,3,10,90,A4,tools,6,7&,80486.8163322,80597.8279855,111.011653299996,0,0
1648,7&,1,61,12,32,22,51,41,Abstract_Concrete_6tasks_simseq_2seq_listtask_switchAB_fMRI,800290,32154,51342,3,11,91,B1,tools,6,7&,80486.8163322,80607.8286568,121.0123246,0,0
6892,8*,1,62,11,32,22,52,42,Abstract_Concrete_6tasks_simseq_2seq_listtask_switchAB_fMRI,800290,32154,51342,3,12,92,A3,helmet,1,8*,80486.8163322,80616.827697,130.011364799997,0,0
3467,4$,1,62,11,32,22,52,41,Abstract_Concrete_6tasks_simseq_2seq_listtask_switchAB_fMRI,800290,32154,51342,3,13,93,B5,vest,2,4$,80486.8163322,80630.8276536,144.011321400001,0,0
5766,4$,1,62,12,32,21,52,42,Abstract_Concrete_6tasks_simseq_2seq_listtask_switchAB_fMRI,800290,32154,51342,3,14,94,A2,vest,2,4$,80486.8163322,80641.8279091,155.011576899997,0,0
4425,3#,1,62,12,32,22,52,42,Abstract_Concrete_6tasks_simseq_2seq_listtask_switchAB_fMRI,800290,32154,51342,3,15,95,B4,weapon,5,3#,80486.8163322,80654.8277071,168.011374900001,0,0
5119,8*,1,62,12,32,22,52,41,Abstract_Concrete_6tasks_simseq_2seq_listtask_switchAB_fMRI,800290,32154,51342,3,16,96,A3,helmet,1,8*,80486.8163322,80666.8273125,180.010980299994,0,0
2685,7&,1,62,11,31,22,52,41,Abstract_Concrete_6tasks_simseq_2seq_listtask_switchAB_fMRI,800290,32154,51342,3,17,97,B1,tools,6,7&,80486.8163322,80679.829475,193.013142800002,0,0
2841,9(,1,62,12,32,22,51,41,Abstract_Concrete_6tasks_simseq_2seq_listtask_switchAB_fMRI,800290,32154,51342,3,18,98,A1,glasses,3,9(,80486.8163322,80689.8284828,203.0121506,0,0
4253,3#,1,62,12,32,22,51,41,Abstract_Concrete_6tasks_simseq_2seq_listtask_switchAB_fMRI,800290,32154,51342,3,19,99,B4,weapon,5,3#,80486.8163322,80699.8274541,213.011121899995,0,0
3230,3#,1,61,12,32,22,51,41,Abstract_Concrete_6tasks_simseq_2seq_listtask_switchAB_fMRI,800290,32154,51342,3,20,100,A5,weapon,5,3#,80486.8163322,80711.8284699,225.012137700003,0,0
6562,7&,0,62,12,32,22,51,42,Abstract_Concrete_6tasks_simseq_2seq_listtask_switchAB_fMRI,800290,32154,51342,3,21,101,B2,helmet,1,8*,80486.8163322,80722.8300842,236.013751999999,80729.4089214,242.592589199994
5367,4$,1,61,11,32,21,52,41,Abstract_Concrete_6tasks_simseq_2seq_listtask_switchAB_fMRI,800290,32154,51342,3,22,102,A2,vest,2,4$,80486.8163322,80736.8262102,250.009877999997,0,0
1904,4$,1,61,11,32,22,51,42,Abstract_Concrete_6tasks_simseq_2seq_listtask_switchAB_fMRI,800290,32154,51342,3,23,103,B5,vest,2,4$,80486.8163322,80749.8292107,263.012878499998,0,0
2631,9(,1,62,11,32,21,52,41,Abstract_Concrete_6tasks_simseq_2seq_listtask_switchAB_fMRI,800290,32154,51342,3,24,104,A1,glasses,3,9(,80486.8163322,80758.827498,272.011165799995,0,0
3077,3#,1,62,12,32,21,51,41,Abstract_Concrete_6tasks_simseq_2seq_listtask_switchAB_fMRI,800290,32154,51342,3,25,105,B4,weapon,5,3#,80486.8163322,80768.8279768,282.011644600003,0,0
4566,8*,1,62,11,32,22,52,42,Abstract_Concrete_6tasks_simseq_2seq_listtask_switchAB_fMRI,800290,32154,51342,3,26,106,A3,helmet,1,8*,80486.8163322,80779.8272048,293.010872600003,0,0
7595,8*,1,62,12,32,21,52,42,Abstract_Concrete_6tasks_simseq_2seq_listtask_switchAB_fMRI,800290,32154,51342,3,27,107,B2,helmet,1,8*,80486.8163322,80791.8291047,305.012772499991,0,0
3544,4$,1,61,11,32,21,51,42,Abstract_Concrete_6tasks_simseq_2seq_listtask_switchAB_fMRI,800290,32154,51342,3,28,108,A2,vest,2,4$,80486.8163322,80806.8276039,320.011271700001,0,0
3160,7&,1,62,11,31,21,52,42,Abstract_Concrete_6tasks_simseq_2seq_listtask_switchAB_fMRI,800290,32154,51342,3,29,109,B1,tools,6,7&,80486.8163322,80817.8287903,331.012458099998,0,0
5282,4$,1,62,11,32,22,51,42,Abstract_Concrete_6tasks_simseq_2seq_listtask_switchAB_fMRI,800290,32154,51342,3,30,110,A2,vest,2,4$,80486.8163322,80828.8277035,342.011371300003,0,0
4533,9(,1,61,11,31,21,51,41,Abstract_Concrete_6tasks_simseq_2seq_listtask_switchAB_fMRI,800290,32154,51342,3,31,111,B3,glasses,3,9(,80486.8163322,80841.8271679,355.010835699999,0,0
4605,8*,1,62,11,31,21,52,41,Abstract_Concrete_6tasks_simseq_2seq_listtask_switchAB_fMRI,800290,32154,51342,3,32,112,A3,helmet,1,8*,80486.8163322,80853.8282453,367.011913099996,0,0
5871,9(,1,61,11,31,21,52,42,Abstract_Concrete_6tasks_simseq_2seq_listtask_switchAB_fMRI,800290,32154,51342,3,33,113,B3,glasses,3,9(,80486.8163322,80865.8279326,379.011600400001,0,0
2768,7&,1,61,11,31,21,51,42,Abstract_Concrete_6tasks_simseq_2seq_listtask_switchAB_fMRI,800290,32154,51342,3,34,114,A4,tools,6,7&,80486.8163322,80878.8275822,392.011249999996,0,0
3643,8*,1,62,11,31,22,51,42,Abstract_Concrete_6tasks_simseq_2seq_listtask_switchAB_fMRI,800290,32154,51342,3,35,115,B2,helmet,1,8*,80486.8163322,80888.826784,402.010451800001,0,0
2847,3#,1,62,12,32,22,51,41,Abstract_Concrete_6tasks_simseq_2seq_listtask_switchAB_fMRI,800290,32154,51342,3,36,116,A5,weapon,5,3#,80486.8163322,80899.829646,413.013313799995,0,0
4217,3#,1,62,12,32,22,51,42,Abstract_Concrete_6tasks_simseq_2seq_listtask_switchAB_fMRI,800290,32154,51342,3,37,117,B4,weapon,5,3#,80486.8163322,80909.8297496,423.013417399998,0,0
5318,7&,1,62,12,31,22,52,42,Abstract_Concrete_6tasks_simseq_2seq_listtask_switchAB_fMRI,800290,32154,51342,3,38,118,A4,tools,6,7&,80486.8163322,80921.829067,435.012734799995,0,0
4925,8*,1,61,11,32,21,51,42,Abstract_Concrete_6tasks_simseq_2seq_listtask_switchAB_fMRI,800290,32154,51342,3,39,119,B2,helmet,1,8*,80486.8163322,80934.8282476,448.011915399999,0,0
1881,3#,1,61,12,31,21,51,41,Abstract_Concrete_6tasks_simseq_2seq_listtask_switchAB_fMRI,800290,32154,51342,3,40,120,A5,weapon,5,3#,80486.8163322,80946.8274786,460.011146399993,0,0
4285,7&,1,62,11,31,22,51,42,Abstract_Concrete_6tasks_simseq_2seq_listtask_switchAB_fMRI,800290,32154,51342,4,1,121,A4,tools,6,7&,81007.5779995,81015.5866233,8.00862379999307,0,0
2756,7&,1,61,11,31,22,51,41,Abstract_Concrete_6tasks_simseq_2seq_listtask_switchAB_fMRI,800290,32154,51342,4,2,122,B1,tools,6,7&,81007.5779995,81027.5877693,20.0097697999881,0,0
2829,3#,1,62,12,31,22,52,41,Abstract_Concrete_6tasks_simseq_2seq_listtask_switchAB_fMRI,800290,32154,51342,4,3,123,A5,weapon,5,3#,81007.5779995,81037.5909039,30.0129043999914,0,0
2882,8*,1,62,12,31,22,51,41,Abstract_Concrete_6tasks_simseq_2seq_listtask_switchAB_fMRI,800290,32154,51342,4,4,124,B2,helmet,1,8*,81007.5779995,81047.5895297,40.0115301999904,0,0
1900,7&,1,61,12,32,22,51,41,Abstract_Concrete_6tasks_simseq_2seq_listtask_switchAB_fMRI,800290,32154,51342,4,5,125,A4,tools,6,7&,81007.5779995,81057.5894609,50.0114613999904,0,0
1268,7&,1,62,12,31,21,52,41,Abstract_Concrete_6tasks_simseq_2seq_listtask_switchAB_fMRI,800290,32154,51342,4,6,126,B1,tools,6,7&,81007.5779995,81066.5897043,59.0117047999956,0,0
3849,4$,1,62,12,31,21,52,42,Abstract_Concrete_6tasks_simseq_2seq_listtask_switchAB_fMRI,800290,32154,51342,4,7,127,A2,vest,2,4$,81007.5779995,81075.5896402,68.0116407000023,0,0
3814,8*,0,62,12,31,22,52,42,Abstract_Concrete_6tasks_simseq_2seq_listtask_switchAB_fMRI,800290,32154,51342,4,8,128,B3,glasses,3,9(,81007.5779995,81086.5897118,79.0117122999945,81090.4189377,82.8409381999954
2698,3#,1,62,12,31,22,51,41,Abstract_Concrete_6tasks_simseq_2seq_listtask_switchAB_fMRI,800290,32154,51342,4,9,129,A5,weapon,5,3#,81007.5779995,81097.5879903,90.0099907999975,0,0
2507,8*,1,62,12,32,21,52,41,Abstract_Concrete_6tasks_simseq_2seq_listtask_switchAB_fMRI,800290,32154,51342,4,10,130,B2,helmet,1,8*,81007.5779995,81107.5902155,100.012215999988,0,0
2727,9(,1,62,12,31,21,52,41,Abstract_Concrete_6tasks_simseq_2seq_listtask_switchAB_fMRI,800290,32154,51342,4,11,131,A1,glasses,3,9(,81007.5779995,81117.5883888,110.01038929999,0,0
2349,4$,1,61,12,31,21,51,42,Abstract_Concrete_6tasks_simseq_2seq_listtask_switchAB_fMRI,800290,32154,51342,4,12,132,B5,vest,2,4$,81007.5779995,81127.5912773,120.013277799997,0,0
1493,7&,1,61,12,31,21,51,41,Abstract_Concrete_6tasks_simseq_2seq_listtask_switchAB_fMRI,800290,32154,51342,4,13,133,A4,tools,6,7&,81007.5779995,81137.5919032,130.01390369999,0,0
2515,3#,1,61,11,31,21,51,42,Abstract_Concrete_6tasks_simseq_2seq_listtask_switchAB_fMRI,800290,32154,51342,4,14,134,B4,weapon,5,3#,81007.5779995,81146.5922868,139.0142873,0,0
2166,3#,1,62,11,31,22,51,42,Abstract_Concrete_6tasks_simseq_2seq_listtask_switchAB_fMRI,800290,32154,51342,4,15,135,A5,weapon,5,3#,81007.5779995,81156.5899161,149.011916599993,0,0
4419,3#,1,62,11,31,21,51,41,Abstract_Concrete_6tasks_simseq_2seq_listtask_switchAB_fMRI,800290,32154,51342,4,16,136,B4,weapon,5,3#,81007.5779995,81166.5904843,159.012484799998,0,0
3009,4$,1,62,12,32,21,52,42,Abstract_Concrete_6tasks_simseq_2seq_listtask_switchAB_fMRI,800290,32154,51342,4,17,137,A2,vest,2,4$,81007.5779995,81178.5903188,171.012319299989,0,0
2441,4$,1,62,11,32,21,51,41,Abstract_Concrete_6tasks_simseq_2seq_listtask_switchAB_fMRI,800290,32154,51342,4,18,138,B5,vest,2,4$,81007.5779995,81189.5909925,182.012992999997,0,0
4260,8*,1,61,11,32,21,51,42,Abstract_Concrete_6tasks_simseq_2seq_listtask_switchAB_fMRI,800290,32154,51342,4,19,139,A3,helmet,1,8*,81007.5779995,81199.591206,192.013206499993,0,0
4409,9(,1,62,12,31,22,52,42,Abstract_Concrete_6tasks_simseq_2seq_listtask_switchAB_fMRI,800290,32154,51342,4,20,140,B3,glasses,3,9(,81007.5779995,81211.5904321,204.012432599993,0,0
4114,4$,1,62,11,31,21,52,41,Abstract_Concrete_6tasks_simseq_2seq_listtask_switchAB_fMRI,800290,32154,51342,4,21,141,A2,vest,2,4$,81007.5779995,81223.5892871,216.011287599991,0,0
1876,4$,1,62,11,31,22,51,41,Abstract_Concrete_6tasks_simseq_2seq_listtask_switchAB_fMRI,800290,32154,51342,4,22,142,B5,vest,2,4$,81007.5779995,81235.5883064,228.010306899989,0,0
4536,8*,1,61,11,32,22,52,42,Abstract_Concrete_6tasks_simseq_2seq_listtask_switchAB_fMRI,800290,32154,51342,4,23,143,A3,helmet,1,8*,81007.5779995,81244.5903379,237.012338399989,0,0
3649,3#,1,62,11,32,22,52,41,Abstract_Concrete_6tasks_simseq_2seq_listtask_switchAB_fMRI,800290,32154,51342,4,24,144,B4,weapon,5,3#,81007.5779995,81256.5917094,249.013709899999,0,0
2253,9(,1,62,11,31,22,51,41,Abstract_Concrete_6tasks_simseq_2seq_listtask_switchAB_fMRI,800290,32154,51342,4,25,145,A1,glasses,3,9(,81007.5779995,81267.5889434,260.010943899993,0,0
4578,9(,1,61,12,32,21,52,42,Abstract_Concrete_6tasks_simseq_2seq_listtask_switchAB_fMRI,800290,32154,51342,4,26,146,B3,glasses,3,9(,81007.5779995,81277.5910016,270.013002099993,0,0
3349,9(,1,61,11,32,22,52,41,Abstract_Concrete_6tasks_simseq_2seq_listtask_switchAB_fMRI,800290,32154,51342,4,27,147,A1,glasses,3,9(,81007.5779995,81289.5907199,282.012720400002,0,0
1558,4$,1,62,11,31,22,52,42,Abstract_Concrete_6tasks_simseq_2seq_listtask_switchAB_fMRI,800290,32154,51342,4,28,148,B5,vest,2,4$,81007.5779995,81300.5889748,293.0109753,0,0
6196,4$,1,62,12,31,21,52,42,Abstract_Concrete_6tasks_simseq_2seq_listtask_switchAB_fMRI,800290,32154,51342,4,29,149,A2,vest,2,4$,81007.5779995,81309.5889387,302.010939200001,0,0
5417,8*,1,62,11,32,21,51,42,Abstract_Concrete_6tasks_simseq_2seq_listtask_switchAB_fMRI,800290,32154,51342,4,30,150,B2,helmet,1,8*,81007.5779995,81323.5899326,316.011933100002,0,0
4670,8*,1,61,11,31,21,51,42,Abstract_Concrete_6tasks_simseq_2seq_listtask_switchAB_fMRI,800290,32154,51342,4,31,151,A3,helmet,1,8*,81007.5779995,81336.5883522,329.010352699988,0,0
1962,7&,1,61,12,31,22,51,42,Abstract_Concrete_6tasks_simseq_2seq_listtask_switchAB_fMRI,800290,32154,51342,4,32,152,B1,tools,6,7&,81007.5779995,81348.5893829,341.011383399993,0,0
2714,3#,1,62,11,32,21,51,42,Abstract_Concrete_6tasks_simseq_2seq_listtask_switchAB_fMRI,800290,32154,51342,4,33,153,A5,weapon,5,3#,81007.5779995,81357.58838,350.010380499996,0,0
3115,7&,1,61,11,31,21,51,42,Abstract_Concrete_6tasks_simseq_2seq_listtask_switchAB_fMRI,800290,32154,51342,4,34,154,B1,tools,6,7&,81007.5779995,81367.5905705,360.012570999999,0,0
2490,7&,1,61,11,31,21,51,42,Abstract_Concrete_6tasks_simseq_2seq_listtask_switchAB_fMRI,800290,32154,51342,4,35,155,A4,tools,6,7&,81007.5779995,81378.5892928,371.011293299991,0,0
3718,8*,1,62,11,31,22,52,42,Abstract_Concrete_6tasks_simseq_2seq_listtask_switchAB_fMRI,800290,32154,51342,4,36,156,B2,helmet,1,8*,81007.5779995,81388.5895611,381.011561599997,0,0
3854,8*,1,61,12,31,21,51,41,Abstract_Concrete_6tasks_simseq_2seq_listtask_switchAB_fMRI,800290,32154,51342,4,37,157,A3,helmet,1,8*,81007.5779995,81399.5893768,392.01137729999,0,0
7891,9(,1,62,11,31,21,52,42,Abstract_Concrete_6tasks_simseq_2seq_listtask_switchAB_fMRI,800290,32154,51342,4,38,158,B3,glasses,3,9(,81007.5779995,81410.5881971,403.010197600001,0,0
1841,9(,1,62,11,31,21,51,41,Abstract_Concrete_6tasks_simseq_2seq_listtask_switchAB_fMRI,800290,32154,51342,4,39,159,A1,glasses,3,9(,81007.5779995,81425.587176,418.009176499996,0,0
4781,3#,1,61,12,31,21,51,41,Abstract_Concrete_6tasks_simseq_2seq_listtask_switchAB_fMRI,800290,32154,51342,4,40,160,B4,weapon,5,3#,81007.5779995,81434.5891722,427.011172699989,0,0
8287,7&,1,62,11,31,21,51,42,Abstract_Concrete_6tasks_simseq_2seq_listtask_switchAB_fMRI,800290,32154,51342,5,1,161,A4,tools,6,7&,81510.8863633,81518.8971621,8.01079879999452,0,0
6301,9(,1,62,11,32,21,52,41,Abstract_Concrete_6tasks_simseq_2seq_listtask_switchAB_fMRI,800290,32154,51342,5,2,162,B3,glasses,3,9(,81510.8863633,81534.897203,24.0108397000004,0,0
5140,8*,1,61,11,32,22,51,42,Abstract_Concrete_6tasks_simseq_2seq_listtask_switchAB_fMRI,800290,32154,51342,5,3,163,A3,helmet,1,8*,81510.8863633,81548.8974399,38.0110765999998,0,0
3768,3#,1,62,12,31,21,52,41,Abstract_Concrete_6tasks_simseq_2seq_listtask_switchAB_fMRI,800290,32154,51342,5,4,164,B4,weapon,5,3#,81510.8863633,81561.8977401,51.011376800001,0,0
3021,4$,1,62,12,31,21,52,41,Abstract_Concrete_6tasks_simseq_2seq_listtask_switchAB_fMRI,800290,32154,51342,5,5,165,A2,vest,2,4$,81510.8863633,81572.8999022,62.0135389000061,0,0
2254,4$,1,61,12,32,22,51,42,Abstract_Concrete_6tasks_simseq_2seq_listtask_switchAB_fMRI,800290,32154,51342,5,6,166,B5,vest,2,4$,81510.8863633,81583.8992429,73.0128796000063,0,0
2450,9(,1,61,11,32,21,52,42,Abstract_Concrete_6tasks_simseq_2seq_listtask_switchAB_fMRI,800290,32154,51342,5,7,167,A1,glasses,3,9(,81510.8863633,81593.8987976,83.0124343000061,0,0
4823,9(,1,61,11,32,21,51,41,Abstract_Concrete_6tasks_simseq_2seq_listtask_switchAB_fMRI,800290,32154,51342,5,8,168,B3,glasses,3,9(,81510.8863633,81603.8984325,93.0120692000055,0,0
4113,8*,1,62,12,31,22,51,42,Abstract_Concrete_6tasks_simseq_2seq_listtask_switchAB_fMRI,800290,32154,51342,5,9,169,A3,helmet,1,8*,81510.8863633,81615.8974109,105.011047599997,0,0
2492,3#,1,62,12,32,21,51,41,Abstract_Concrete_6tasks_simseq_2seq_listtask_switchAB_fMRI,800290,32154,51342,5,10,170,B4,weapon,5,3#,81510.8863633,81627.8989421,117.0125788,0,0
2362,4$,1,61,11,31,22,52,42,Abstract_Concrete_6tasks_simseq_2seq_listtask_switchAB_fMRI,800290,32154,51342,5,11,171,A2,vest,2,4$,81510.8863633,81637.8988483,127.012484999999,0,0
2661,9(,1,61,11,32,22,52,42,Abstract_Concrete_6tasks_simseq_2seq_listtask_switchAB_fMRI,800290,32154,51342,5,12,172,B3,glasses,3,9(,81510.8863633,81647.8985291,137.012165799999,0,0
2763,4$,1,62,11,32,22,52,42,Abstract_Concrete_6tasks_simseq_2seq_listtask_switchAB_fMRI,800290,32154,51342,5,13,173,A2,vest,2,4$,81510.8863633,81657.8972923,147.010928999996,0,0
5533,8*,1,62,11,31,22,51,41,Abstract_Concrete_6tasks_simseq_2seq_listtask_switchAB_fMRI,800290,32154,51342,5,14,174,B2,helmet,1,8*,81510.8863633,81667.8972902,157.010926899995,0,0
2553,7&,1,61,11,32,21,51,42,Abstract_Concrete_6tasks_simseq_2seq_listtask_switchAB_fMRI,800290,32154,51342,5,15,175,A4,tools,6,7&,81510.8863633,81680.8997619,170.0133986,0,0
2122,7&,1,62,12,31,22,51,42,Abstract_Concrete_6tasks_simseq_2seq_listtask_switchAB_fMRI,800290,32154,51342,5,16,176,B1,tools,6,7&,81510.8863633,81690.8979262,180.011562900007,0,0
4140,8*,1,61,11,31,21,52,41,Abstract_Concrete_6tasks_simseq_2seq_listtask_switchAB_fMRI,800290,32154,51342,5,17,177,A3,helmet,1,8*,81510.8863633,81700.896063,190.009699699993,0,0
4754,9(,1,62,12,32,22,52,41,Abstract_Concrete_6tasks_simseq_2seq_listtask_switchAB_fMRI,800290,32154,51342,5,18,178,B3,glasses,3,9(,81510.8863633,81712.8989642,202.012600899994,0,0
4130,8*,1,62,11,31,22,52,41,Abstract_Concrete_6tasks_simseq_2seq_listtask_switchAB_fMRI,800290,32154,51342,5,19,179,A3,helmet,1,8*,81510.8863633,81724.8997898,214.013426499994,0,0
3130,4$,1,61,12,31,21,51,41,Abstract_Concrete_6tasks_simseq_2seq_listtask_switchAB_fMRI,800290,32154,51342,5,20,180,B5,vest,2,4$,81510.8863633,81736.8987062,226.012342899994,0,0
2147,9(,1,61,11,31,22,52,42,Abstract_Concrete_6tasks_simseq_2seq_listtask_switchAB_fMRI,800290,32154,51342,5,21,181,A1,glasses,3,9(,81510.8863633,81747.8992031,237.012839799994,0,0
2085,7&,1,62,12,31,22,52,41,Abstract_Concrete_6tasks_simseq_2seq_listtask_switchAB_fMRI,800290,32154,51342,5,22,182,B1,tools,6,7&,81510.8863633,81757.8984051,247.012041800001,0,0
3716,7&,1,61,12,31,21,52,42,Abstract_Concrete_6tasks_simseq_2seq_listtask_switchAB_fMRI,800290,32154,51342,5,23,183,A4,tools,6,7&,81510.8863633,81767.8981341,257.011770800003,0,0
7119,8*,1,62,12,32,21,52,41,Abstract_Concrete_6tasks_simseq_2seq_listtask_switchAB_fMRI,800290,32154,51342,5,24,184,B2,helmet,1,8*,81510.8863633,81778.897666,268.011302700004,0,0
2563,3#,1,61,12,31,21,51,41,Abstract_Concrete_6tasks_simseq_2seq_listtask_switchAB_fMRI,800290,32154,51342,5,25,185,A5,weapon,5,3#,81510.8863633,81793.898237,283.011873700001,0,0
3096,3#,1,62,12,32,21,51,41,Abstract_Concrete_6tasks_simseq_2seq_listtask_switchAB_fMRI,800290,32154,51342,5,26,186,B4,weapon,5,3#,81510.8863633,81803.8974601,293.011096799994,0,0
1706,9(,1,61,11,31,21,52,42,Abstract_Concrete_6tasks_simseq_2seq_listtask_switchAB_fMRI,800290,32154,51342,5,27,187,A1,glasses,3,9(,81510.8863633,81814.8977028,304.011339499993,0,0
1949,4$,1,62,11,31,22,52,41,Abstract_Concrete_6tasks_simseq_2seq_listtask_switchAB_fMRI,800290,32154,51342,5,28,188,B5,vest,2,4$,81510.8863633,81823.8981459,313.011782600006,0,0
2612,3#,1,61,12,32,21,51,41,Abstract_Concrete_6tasks_simseq_2seq_listtask_switchAB_fMRI,800290,32154,51342,5,29,189,A5,weapon,5,3#,81510.8863633,81832.8976351,322.011271800002,0,0
2452,7&,1,62,11,31,22,52,42,Abstract_Concrete_6tasks_simseq_2seq_listtask_switchAB_fMRI,800290,32154,51342,5,30,190,B1,tools,6,7&,81510.8863633,81842.8983801,332.012016799999,0,0
2755,3#,1,62,11,31,22,51,41,Abstract_Concrete_6tasks_simseq_2seq_listtask_switchAB_fMRI,800290,32154,51342,5,31,191,A5,weapon,5,3#,81510.8863633,81852.8961017,342.009738399996,0,0
1357,7&,1,62,12,31,22,52,41,Abstract_Concrete_6tasks_simseq_2seq_listtask_switchAB_fMRI,800290,32154,51342,5,32,192,B1,tools,6,7&,81510.8863633,81862.8978378,352.011474500003,0,0
1932,3#,1,62,11,31,21,51,42,Abstract_Concrete_6tasks_simseq_2seq_listtask_switchAB_fMRI,800290,32154,51342,5,33,193,A5,weapon,5,3#,81510.8863633,81871.8983398,361.011976499998,0,0
3499,8*,1,61,12,32,22,51,41,Abstract_Concrete_6tasks_simseq_2seq_listtask_switchAB_fMRI,800290,32154,51342,5,34,194,B2,helmet,1,8*,81510.8863633,81880.8989907,370.012627400007,0,0
4960,4$,1,62,12,31,22,51,41,Abstract_Concrete_6tasks_simseq_2seq_listtask_switchAB_fMRI,800290,32154,51342,5,35,195,A2,vest,2,4$,81510.8863633,81891.8970594,381.010696099998,0,0
2903,3#,1,61,12,31,22,52,42,Abstract_Concrete_6tasks_simseq_2seq_listtask_switchAB_fMRI,800290,32154,51342,5,36,196,B4,weapon,5,3#,81510.8863633,81903.900074,393.013710700005,0,0
1941,9(,1,62,11,32,21,51,42,Abstract_Concrete_6tasks_simseq_2seq_listtask_switchAB_fMRI,800290,32154,51342,5,37,197,A1,glasses,3,9(,81510.8863633,81913.8963412,403.009977900001,0,0
4286,8*,1,62,11,31,22,52,41,Abstract_Concrete_6tasks_simseq_2seq_listtask_switchAB_fMRI,800290,32154,51342,5,38,198,B2,helmet,1,8*,81510.8863633,81922.8971622,412.010798899995,0,0
2004,4$,0,62,12,32,21,51,42,Abstract_Concrete_6tasks_simseq_2seq_listtask_switchAB_fMRI,800290,32154,51342,5,39,199,A4,tools,6,7&,81510.8863633,81934.8982562,424.011892900002,81936.9185656,426.032202300004
4129,4$,1,62,12,31,21,52,42,Abstract_Concrete_6tasks_simseq_2seq_listtask_switchAB_fMRI,800290,32154,51342,5,40,200,B5,vest,2,4$,81510.8863633,81944.8973841,434.011020799997,0,0
3670,3#,1,61,12,32,22,51,41,Abstract_Concrete_6tasks_simseq_2seq_listtask_switchAB_fMRI,800290,32154,51342,6,1,201,A5,weapon,5,3#,81999.4815887,82007.4901593,8.00857059999544,0,0
5251,9(,1,62,12,32,22,51,42,Abstract_Concrete_6tasks_simseq_2seq_listtask_switchAB_fMRI,800290,32154,51342,6,2,202,B3,glasses,3,9(,81999.4815887,82018.4914044,19.0098157000029,0,0
3948,8*,1,62,11,32,22,51,41,Abstract_Concrete_6tasks_simseq_2seq_listtask_switchAB_fMRI,800290,32154,51342,6,3,203,A3,helmet,1,8*,81999.4815887,82031.4939361,32.0123473999993,0,0
1598,7&,1,62,11,32,22,52,42,Abstract_Concrete_6tasks_simseq_2seq_listtask_switchAB_fMRI,800290,32154,51342,6,4,204,B1,tools,6,7&,81999.4815887,82042.4932719,43.0116832000058,0,0
5823,4$,1,61,12,32,22,51,42,Abstract_Concrete_6tasks_simseq_2seq_listtask_switchAB_fMRI,800290,32154,51342,6,5,205,A2,vest,2,4$,81999.4815887,82051.4952244,52.013635700001,0,0
4647,8*,1,62,11,32,22,52,42,Abstract_Concrete_6tasks_simseq_2seq_listtask_switchAB_fMRI,800290,32154,51342,6,6,206,B2,helmet,1,8*,81999.4815887,82064.4926468,65.0110581000044,0,0
2651,7&,1,62,12,32,22,51,41,Abstract_Concrete_6tasks_simseq_2seq_listtask_switchAB_fMRI,800290,32154,51342,6,7,207,A4,tools,6,7&,81999.4815887,82076.493523,77.0119342999969,0,0
3781,3#,1,62,12,31,22,52,41,Abstract_Concrete_6tasks_simseq_2seq_listtask_switchAB_fMRI,800290,32154,51342,6,8,208,B4,weapon,5,3#,81999.4815887,82086.4935605,87.011971800006,0,0
2017,9(,1,62,11,32,21,52,42,Abstract_Concrete_6tasks_simseq_2seq_listtask_switchAB_fMRI,800290,32154,51342,6,9,209,A1,glasses,3,9(,81999.4815887,82097.4946799,98.0130912000022,0,0
1834,7&,1,62,12,32,21,52,42,Abstract_Concrete_6tasks_simseq_2seq_listtask_switchAB_fMRI,800290,32154,51342,6,10,210,B1,tools,6,7&,81999.4815887,82107.4933169,108.011728199999,0,0
3531,8*,1,62,11,31,21,51,41,Abstract_Concrete_6tasks_simseq_2seq_listtask_switchAB_fMRI,800290,32154,51342,6,11,211,A3,helmet,1,8*,81999.4815887,82116.4940262,117.012437500001,0,0
2121,4$,1,61,12,31,22,52,41,Abstract_Concrete_6tasks_simseq_2seq_listtask_switchAB_fMRI,800290,32154,51342,6,12,212,B5,vest,2,4$,81999.4815887,82127.4942907,128.012701999993,0,0
4032,4$,1,61,12,32,21,52,42,Abstract_Concrete_6tasks_simseq_2seq_listtask_switchAB_fMRI,800290,32154,51342,6,13,213,A2,vest,2,4$,81999.4815887,82137.4930536,138.011464900002,0,0
3043,4$,1,61,11,32,21,51,41,Abstract_Concrete_6tasks_simseq_2seq_listtask_switchAB_fMRI,800290,32154,51342,6,14,214,B5,vest,2,4$,81999.4815887,82149.4948779,150.013289199997,0,0
1416,9(,1,61,11,31,21,52,42,Abstract_Concrete_6tasks_simseq_2seq_listtask_switchAB_fMRI,800290,32154,51342,6,15,215,A1,glasses,3,9(,81999.4815887,82160.4945204,161.012931699996,0,0
1978,7&,1,61,11,31,22,52,41,Abstract_Concrete_6tasks_simseq_2seq_listtask_switchAB_fMRI,800290,32154,51342,6,16,216,B1,tools,6,7&,81999.4815887,82169.4934257,170.011836999998,0,0
3973,8*,1,61,12,31,21,51,42,Abstract_Concrete_6tasks_simseq_2seq_listtask_switchAB_fMRI,800290,32154,51342,6,17,217,A3,helmet,1,8*,81999.4815887,82178.4930318,179.011443099997,0,0
2703,7&,1,62,12,31,21,51,41,Abstract_Concrete_6tasks_simseq_2seq_listtask_switchAB_fMRI,800290,32154,51342,6,18,218,B1,tools,6,7&,81999.4815887,82189.4926346,190.011045899999,0,0
2274,9(,1,61,11,32,21,51,41,Abstract_Concrete_6tasks_simseq_2seq_listtask_switchAB_fMRI,800290,32154,51342,6,19,219,A1,glasses,3,9(,81999.4815887,82199.4954651,200.0138764,0,0
3617,4$,1,61,12,32,21,51,42,Abstract_Concrete_6tasks_simseq_2seq_listtask_switchAB_fMRI,800290,32154,51342,6,20,220,B5,vest,2,4$,81999.4815887,82209.4939609,210.012372199999,0,0
3030,8*,1,62,11,31,21,52,42,Abstract_Concrete_6tasks_simseq_2seq_listtask_switchAB_fMRI,800290,32154,51342,6,21,221,A3,helmet,1,8*,81999.4815887,82220.4951017,221.013512999998,0,0
3019,8*,1,61,12,32,22,52,41,Abstract_Concrete_6tasks_simseq_2seq_listtask_switchAB_fMRI,800290,32154,51342,6,22,222,B2,helmet,1,8*,81999.4815887,82231.4955984,232.014009699997,0,0
2723,8*,0,61,12,32,22,52,42,Abstract_Concrete_6tasks_simseq_2seq_listtask_switchAB_fMRI,800290,32154,51342,6,23,223,A2,vest,2,4$,81999.4815887,82242.4954203,243.013831599994,82245.2346341,245.753045399993
2062,4$,1,61,11,31,21,51,41,Abstract_Concrete_6tasks_simseq_2seq_listtask_switchAB_fMRI,800290,32154,51342,6,24,224,B5,vest,2,4$,81999.4815887,82252.4924194,253.010830700005,0,0
2311,3#,1,62,12,31,21,52,42,Abstract_Concrete_6tasks_simseq_2seq_listtask_switchAB_fMRI,800290,32154,51342,6,25,225,A5,weapon,5,3#,81999.4815887,82262.4937149,263.012126200003,0,0
3795,8*,1,61,11,31,22,52,41,Abstract_Concrete_6tasks_simseq_2seq_listtask_switchAB_fMRI,800290,32154,51342,6,26,226,B2,helmet,1,8*,81999.4815887,82272.4922799,273.010691200005,0,0
1872,3#,1,62,11,32,21,52,41,Abstract_Concrete_6tasks_simseq_2seq_listtask_switchAB_fMRI,800290,32154,51342,6,27,227,A5,weapon,5,3#,81999.4815887,82283.4918558,284.010267100006,0,0
3445,9(,1,61,12,31,21,52,41,Abstract_Concrete_6tasks_simseq_2seq_listtask_switchAB_fMRI,800290,32154,51342,6,28,228,B3,glasses,3,9(,81999.4815887,82292.4941999,293.0126112,0,0
2919,4$,1,61,12,32,21,51,42,Abstract_Concrete_6tasks_simseq_2seq_listtask_switchAB_fMRI,800290,32154,51342,6,29,229,A2,vest,2,4$,81999.4815887,82303.4945116,304.012922900001,0,0
8493,3#,1,62,11,31,21,51,42,Abstract_Concrete_6tasks_simseq_2seq_listtask_switchAB_fMRI,800290,32154,51342,6,30,230,B4,weapon,5,3#,81999.4815887,82313.4928747,314.011285999994,0,0
7612,7&,1,61,11,31,21,51,41,Abstract_Concrete_6tasks_simseq_2seq_listtask_switchAB_fMRI,800290,32154,51342,6,31,231,A4,tools,6,7&,81999.4815887,82329.4925326,330.010943899993,0,0
3179,3#,1,62,12,32,22,51,42,Abstract_Concrete_6tasks_simseq_2seq_listtask_switchAB_fMRI,800290,32154,51342,6,32,232,B4,weapon,5,3#,81999.4815887,82344.4929817,345.011392999993,0,0
2050,3#,1,62,11,32,21,51,41,Abstract_Concrete_6tasks_simseq_2seq_listtask_switchAB_fMRI,800290,32154,51342,6,33,233,A5,weapon,5,3#,81999.4815887,82355.4954201,356.013831399992,0,0
5017,9(,1,61,12,32,21,52,41,Abstract_Concrete_6tasks_simseq_2seq_listtask_switchAB_fMRI,800290,32154,51342,6,34,234,B3,glasses,3,9(,81999.4815887,82365.4933306,366.011741900002,0,0
3616,7&,1,61,11,32,21,52,41,Abstract_Concrete_6tasks_simseq_2seq_listtask_switchAB_fMRI,800290,32154,51342,6,35,235,A4,tools,6,7&,81999.4815887,82378.4926823,379.011093599998,0,0
6454,9(,1,61,11,32,22,51,42,Abstract_Concrete_6tasks_simseq_2seq_listtask_switchAB_fMRI,800290,32154,51342,6,36,236,B3,glasses,3,9(,81999.4815887,82389.49291,390.0113213,0,0
2695,7&,1,62,12,31,21,51,42,Abstract_Concrete_6tasks_simseq_2seq_listtask_switchAB_fMRI,800290,32154,51342,6,37,237,A4,tools,6,7&,81999.4815887,82403.4931318,404.011543100001,0,0
3753,4$,0,62,11,32,22,51,41,Abstract_Concrete_6tasks_simseq_2seq_listtask_switchAB_fMRI,800290,32154,51342,6,38,238,B4,weapon,5,3#,81999.4815887,82413.4928115,414.011222799993,82417.258154,417.776565299995
1706,9(,1,61,12,31,21,52,42,Abstract_Concrete_6tasks_simseq_2seq_listtask_switchAB_fMRI,800290,32154,51342,6,39,239,A1,glasses,3,9(,81999.4815887,82424.4928336,425.011244900001,0,0
3253,8*,1,62,11,31,21,52,42,Abstract_Concrete_6tasks_simseq_2seq_listtask_switchAB_fMRI,800290,32154,51342,6,40,240,B2,helmet,1,8*,81999.4815887,82433.4925919,434.011003199994,0,0
