rt1,resp1,correct1,features_1,features_2,features_3,features_4,features_5,features_6,ExpName,subNo,seqA,seqB,block,trial,trialnum,cuetype,task,subtaskcode,corr_resp1,onsetTime_s,onsetTime_cue,onset_cue,onsetTime_cue_fb,onset_cue_fb
8424,8*,1,41,51,11,32,21,62,Abstract_Concrete_6tasks_simseq_2seq_listtask_switchAB_fMRI,8078510,14235,32154,1,1,1,A2,weapon,5,8*,3340.70798,3348.717606,8.009625604,0,0
5923,2@,1,42,52,12,31,22,61,Abstract_Concrete_6tasks_simseq_2seq_listtask_switchAB_fMRI,8078510,14235,32154,1,2,2,B4,tools,6,2@,3340.70798,3364.717206,24.00922579,0,0
5163,3#,1,42,52,12,32,22,62,Abstract_Concrete_6tasks_simseq_2seq_listtask_switchAB_fMRI,8078510,14235,32154,1,3,3,A3,vest,2,3#,3340.70798,3377.716841,37.00886063,0,0
4528,9(,1,41,52,12,32,22,61,Abstract_Concrete_6tasks_simseq_2seq_listtask_switchAB_fMRI,8078510,14235,32154,1,4,4,B3,helmet,1,9(,3340.70798,3390.719254,50.0112736,0,0
7815,9(,1,41,52,12,32,21,62,Abstract_Concrete_6tasks_simseq_2seq_listtask_switchAB_fMRI,8078510,14235,32154,1,5,5,A1,helmet,1,9(,3340.70798,3402.721165,62.0131849,0,0
5331,3#,1,42,51,12,31,22,61,Abstract_Concrete_6tasks_simseq_2seq_listtask_switchAB_fMRI,8078510,14235,32154,1,6,6,B2,vest,2,3#,3340.70798,3417.719208,77.0112277,0,0
5420,8*,1,42,51,12,32,21,61,Abstract_Concrete_6tasks_simseq_2seq_listtask_switchAB_fMRI,8078510,14235,32154,1,7,7,A2,weapon,5,8*,3340.70798,3430.719804,90.0118233,0,0
5011,4$,1,42,51,11,32,21,62,Abstract_Concrete_6tasks_simseq_2seq_listtask_switchAB_fMRI,8078510,14235,32154,1,8,8,B1,glasses,3,4$,3340.70798,3443.718943,103.010963,0,0
8166,8*,0,42,52,12,31,21,61,Abstract_Concrete_6tasks_simseq_2seq_listtask_switchAB_fMRI,8078510,14235,32154,1,9,9,A5,tools,6,2@,3340.70798,3456.719389,116.0114091,3464.903392,124.1954113
5060,3#,1,41,51,12,31,22,61,Abstract_Concrete_6tasks_simseq_2seq_listtask_switchAB_fMRI,8078510,14235,32154,1,10,10,B2,vest,2,3#,3340.70798,3472.719382,132.0114015,0,0
4375,9(,0,42,51,12,31,22,62,Abstract_Concrete_6tasks_simseq_2seq_listtask_switchAB_fMRI,8078510,14235,32154,1,11,11,A3,vest,2,3#,3340.70798,3485.72159,145.0136097,3490.112403,149.4044229
4911,9(,1,42,52,12,31,21,62,Abstract_Concrete_6tasks_simseq_2seq_listtask_switchAB_fMRI,8078510,14235,32154,1,12,12,B3,helmet,1,9(,3340.70798,3497.719171,157.0111904,0,0
3347,8*,1,42,51,12,32,22,62,Abstract_Concrete_6tasks_simseq_2seq_listtask_switchAB_fMRI,8078510,14235,32154,1,13,13,A2,weapon,5,8*,3340.70798,3509.719034,169.011054,0,0
3887,4$,1,41,51,11,31,22,61,Abstract_Concrete_6tasks_simseq_2seq_listtask_switchAB_fMRI,8078510,14235,32154,1,14,14,B1,glasses,3,4$,3340.70798,3520.719824,180.0118433,0,0
4979,8*,0,42,51,12,32,21,62,Abstract_Concrete_6tasks_simseq_2seq_listtask_switchAB_fMRI,8078510,14235,32154,1,15,15,A4,glasses,3,4$,3340.70798,3531.718912,191.0109317,3536.713077,196.0050963
4140,8*,0,41,51,11,32,22,62,Abstract_Concrete_6tasks_simseq_2seq_listtask_switchAB_fMRI,8078510,14235,32154,1,16,16,B4,tools,6,2@,3340.70798,3544.719382,204.0114018,3548.871006,208.1630256
6178,8*,0,41,51,11,31,22,61,Abstract_Concrete_6tasks_simseq_2seq_listtask_switchAB_fMRI,8078510,14235,32154,1,17,17,A5,tools,6,2@,3340.70798,3556.718926,216.0109455,3562.911424,222.2034435
5540,3#,1,41,52,12,32,21,61,Abstract_Concrete_6tasks_simseq_2seq_listtask_switchAB_fMRI,8078510,14235,32154,1,18,18,B2,vest,2,3#,3340.70798,3570.720459,230.0124783,0,0
3835,8*,1,42,52,12,32,21,62,Abstract_Concrete_6tasks_simseq_2seq_listtask_switchAB_fMRI,8078510,14235,32154,1,19,19,A2,weapon,5,8*,3340.70798,3583.717334,243.0093538,0,0
5888,9(,1,42,51,12,31,21,62,Abstract_Concrete_6tasks_simseq_2seq_listtask_switchAB_fMRI,8078510,14235,32154,1,20,20,B3,helmet,1,9(,3340.70798,3594.718475,254.0104947,0,0
4460,3#,1,41,52,12,32,22,62,Abstract_Concrete_6tasks_simseq_2seq_listtask_switchAB_fMRI,8078510,14235,32154,1,21,21,A3,vest,2,3#,3340.70798,3607.719325,267.0113444,0,0
4082,4$,1,41,51,12,32,22,61,Abstract_Concrete_6tasks_simseq_2seq_listtask_switchAB_fMRI,8078510,14235,32154,1,22,22,B1,glasses,3,4$,3340.70798,3619.720192,279.0122115,0,0
6307,2@,1,42,51,11,32,21,62,Abstract_Concrete_6tasks_simseq_2seq_listtask_switchAB_fMRI,8078510,14235,32154,1,23,23,A5,tools,6,2@,3340.70798,3631.719625,291.0116446,0,0
8022,2@,1,42,52,12,32,21,61,Abstract_Concrete_6tasks_simseq_2seq_listtask_switchAB_fMRI,8078510,14235,32154,1,24,24,B4,tools,6,2@,3340.70798,3645.720888,305.0129073,0,0
5940,4$,1,42,52,11,32,21,62,Abstract_Concrete_6tasks_simseq_2seq_listtask_switchAB_fMRI,8078510,14235,32154,1,25,25,A4,glasses,3,4$,3340.70798,3661.718784,321.0108038,0,0
4603,9(,1,42,52,11,31,21,62,Abstract_Concrete_6tasks_simseq_2seq_listtask_switchAB_fMRI,8078510,14235,32154,1,26,26,B3,helmet,1,9(,3340.70798,3674.718227,334.010247,0,0
4093,4$,0,41,51,11,31,22,61,Abstract_Concrete_6tasks_simseq_2seq_listtask_switchAB_fMRI,8078510,14235,32154,1,27,27,A1,helmet,1,9(,3340.70798,3686.720385,346.0124051,3690.825389,350.1174084
6710,2@,0,41,52,11,31,22,61,Abstract_Concrete_6tasks_simseq_2seq_listtask_switchAB_fMRI,8078510,14235,32154,1,28,28,B5,weapon,5,8*,3340.70798,3698.718383,358.0104029,3705.442307,364.7343263
6292,9(,1,41,52,11,31,22,61,Abstract_Concrete_6tasks_simseq_2seq_listtask_switchAB_fMRI,8078510,14235,32154,1,29,29,A1,helmet,1,9(,3340.70798,3712.71871,372.0107293,0,0
5592,4$,1,42,51,11,31,22,61,Abstract_Concrete_6tasks_simseq_2seq_listtask_switchAB_fMRI,8078510,14235,32154,1,30,30,B1,glasses,3,4$,3340.70798,3726.720145,386.0121647,0,0
0,,0,42,52,11,31,22,61,Abstract_Concrete_6tasks_simseq_2seq_listtask_switchAB_fMRI,8078510,14235,32154,1,31,31,A3,vest,2,3#,3340.70798,3739.71915,399.0111697,3748.746178,408.0381973
3680,2@,0,42,52,12,31,22,61,Abstract_Concrete_6tasks_simseq_2seq_listtask_switchAB_fMRI,8078510,14235,32154,1,32,32,B5,weapon,5,8*,3340.70798,3756.718058,416.0100775,3760.409477,419.7014964
4390,4$,1,42,51,11,31,22,61,Abstract_Concrete_6tasks_simseq_2seq_listtask_switchAB_fMRI,8078510,14235,32154,1,33,33,A4,glasses,3,4$,3340.70798,3767.71862,427.0106399,0,0
3666,2@,1,42,52,12,32,21,62,Abstract_Concrete_6tasks_simseq_2seq_listtask_switchAB_fMRI,8078510,14235,32154,1,34,34,B4,tools,6,2@,3340.70798,3779.720395,439.0124146,0,0
3315,9(,1,42,52,12,32,21,62,Abstract_Concrete_6tasks_simseq_2seq_listtask_switchAB_fMRI,8078510,14235,32154,1,35,35,A1,helmet,1,9(,3340.70798,3790.719186,450.0112056,0,0
2919,8*,1,41,52,12,31,22,61,Abstract_Concrete_6tasks_simseq_2seq_listtask_switchAB_fMRI,8078510,14235,32154,1,36,36,B5,weapon,5,8*,3340.70798,3801.720975,461.0129942,0,0
2534,4$,1,41,52,11,32,21,61,Abstract_Concrete_6tasks_simseq_2seq_listtask_switchAB_fMRI,8078510,14235,32154,1,37,37,A4,glasses,3,4$,3340.70798,3811.718097,471.0101168,0,0
3636,8*,1,41,51,11,31,21,61,Abstract_Concrete_6tasks_simseq_2seq_listtask_switchAB_fMRI,8078510,14235,32154,1,38,38,B5,weapon,5,8*,3340.70798,3821.719137,481.0111565,0,0
2943,2@,1,41,52,12,32,21,62,Abstract_Concrete_6tasks_simseq_2seq_listtask_switchAB_fMRI,8078510,14235,32154,1,39,39,A5,tools,6,2@,3340.70798,3832.718679,492.010699,0,0
4962,3#,1,41,51,11,31,22,62,Abstract_Concrete_6tasks_simseq_2seq_listtask_switchAB_fMRI,8078510,14235,32154,1,40,40,B2,vest,2,3#,3340.70798,3842.717891,502.0099104,0,0
2992,2@,1,41,51,11,31,22,62,Abstract_Concrete_6tasks_simseq_2seq_listtask_switchAB_fMRI,8078510,14235,32154,2,1,41,A5,tools,6,2@,3913.839224,3921.849732,8.0105072,0,0
2475,3#,1,42,52,12,31,22,62,Abstract_Concrete_6tasks_simseq_2seq_listtask_switchAB_fMRI,8078510,14235,32154,2,2,42,B2,vest,2,3#,3913.839224,3932.849239,19.0100144,0,0
4588,3#,1,42,51,11,32,21,62,Abstract_Concrete_6tasks_simseq_2seq_listtask_switchAB_fMRI,8078510,14235,32154,2,3,43,A3,vest,2,3#,3913.839224,3942.850175,29.0109508,0,0
3252,2@,1,42,51,12,31,21,61,Abstract_Concrete_6tasks_simseq_2seq_listtask_switchAB_fMRI,8078510,14235,32154,2,4,44,B4,tools,6,2@,3913.839224,3954.850815,41.0115909,0,0
3794,2@,1,42,51,12,32,21,61,Abstract_Concrete_6tasks_simseq_2seq_listtask_switchAB_fMRI,8078510,14235,32154,2,5,45,A5,tools,6,2@,3913.839224,3965.850509,52.0112849,0,0
3279,4$,1,41,51,11,31,22,61,Abstract_Concrete_6tasks_simseq_2seq_listtask_switchAB_fMRI,8078510,14235,32154,2,6,46,B1,glasses,3,4$,3913.839224,3976.849958,63.0107339,0,0
3316,3#,1,42,52,11,32,22,62,Abstract_Concrete_6tasks_simseq_2seq_listtask_switchAB_fMRI,8078510,14235,32154,2,7,47,A3,vest,2,3#,3913.839224,3987.852844,74.0136193,0,0
3412,8*,1,42,51,12,31,21,62,Abstract_Concrete_6tasks_simseq_2seq_listtask_switchAB_fMRI,8078510,14235,32154,2,8,48,B5,weapon,5,8*,3913.839224,3998.85153,85.0123057,0,0
2003,2@,1,42,52,12,31,21,62,Abstract_Concrete_6tasks_simseq_2seq_listtask_switchAB_fMRI,8078510,14235,32154,2,9,49,A5,tools,6,2@,3913.839224,4009.850105,96.0108806,0,0
3136,3#,1,41,51,11,32,21,62,Abstract_Concrete_6tasks_simseq_2seq_listtask_switchAB_fMRI,8078510,14235,32154,2,10,50,B2,vest,2,3#,3913.839224,4019.851701,106.0124767,0,0
4356,8*,1,41,52,11,32,21,62,Abstract_Concrete_6tasks_simseq_2seq_listtask_switchAB_fMRI,8078510,14235,32154,2,11,51,A2,weapon,5,8*,3913.839224,4030.853058,117.0138339,0,0
3379,9(,1,42,52,12,32,21,61,Abstract_Concrete_6tasks_simseq_2seq_listtask_switchAB_fMRI,8078510,14235,32154,2,12,52,B3,helmet,1,9(,3913.839224,4042.851015,129.0117906,0,0
4037,9(,1,41,52,11,31,22,61,Abstract_Concrete_6tasks_simseq_2seq_listtask_switchAB_fMRI,8078510,14235,32154,2,13,53,A1,helmet,1,9(,3913.839224,4053.851213,140.0119885,0,0
2324,8*,1,42,51,12,32,22,61,Abstract_Concrete_6tasks_simseq_2seq_listtask_switchAB_fMRI,8078510,14235,32154,2,14,54,B5,weapon,5,8*,3913.839224,4065.851518,152.0122935,0,0
3600,4$,1,42,52,12,31,21,62,Abstract_Concrete_6tasks_simseq_2seq_listtask_switchAB_fMRI,8078510,14235,32154,2,15,55,A4,glasses,3,4$,3913.839224,4075.850288,162.0110635,0,0
3607,2@,0,42,52,11,31,22,62,Abstract_Concrete_6tasks_simseq_2seq_listtask_switchAB_fMRI,8078510,14235,32154,2,16,56,B1,glasses,3,4$,3913.839224,4086.84971,173.0104859,4090.471375,176.6321502
3548,8*,1,42,52,11,31,21,61,Abstract_Concrete_6tasks_simseq_2seq_listtask_switchAB_fMRI,8078510,14235,32154,2,17,57,A2,weapon,5,8*,3913.839224,4097.849952,184.0107275,0,0
3938,2@,1,41,51,11,32,22,61,Abstract_Concrete_6tasks_simseq_2seq_listtask_switchAB_fMRI,8078510,14235,32154,2,18,58,B4,tools,6,2@,3913.839224,4108.850945,195.0117208,0,0
2663,9(,1,41,51,12,32,22,62,Abstract_Concrete_6tasks_simseq_2seq_listtask_switchAB_fMRI,8078510,14235,32154,2,19,59,A1,helmet,1,9(,3913.839224,4119.851213,206.0119888,0,0
3045,2@,1,41,51,12,31,22,61,Abstract_Concrete_6tasks_simseq_2seq_listtask_switchAB_fMRI,8078510,14235,32154,2,20,60,B4,tools,6,2@,3913.839224,4129.851336,216.0121121,0,0
3407,3#,1,42,52,12,32,22,62,Abstract_Concrete_6tasks_simseq_2seq_listtask_switchAB_fMRI,8078510,14235,32154,2,21,61,A3,vest,2,3#,3913.839224,4140.850256,227.0110319,0,0
4076,4$,1,42,51,12,31,21,62,Abstract_Concrete_6tasks_simseq_2seq_listtask_switchAB_fMRI,8078510,14235,32154,2,22,62,B1,glasses,3,4$,3913.839224,4151.850633,238.0114085,0,0
3293,9(,1,42,52,11,32,22,62,Abstract_Concrete_6tasks_simseq_2seq_listtask_switchAB_fMRI,8078510,14235,32154,2,23,63,A1,helmet,1,9(,3913.839224,4163.852448,250.013224,0,0
3914,3#,1,41,51,11,32,21,62,Abstract_Concrete_6tasks_simseq_2seq_listtask_switchAB_fMRI,8078510,14235,32154,2,24,64,B2,vest,2,3#,3913.839224,4174.849909,261.0106844,0,0
4150,4$,1,41,51,12,31,22,61,Abstract_Concrete_6tasks_simseq_2seq_listtask_switchAB_fMRI,8078510,14235,32154,2,25,65,A4,glasses,3,4$,3913.839224,4185.849969,272.0107446,0,0
3117,9(,1,41,52,11,31,21,61,Abstract_Concrete_6tasks_simseq_2seq_listtask_switchAB_fMRI,8078510,14235,32154,2,26,66,B3,helmet,1,9(,3913.839224,4197.852028,284.0128034,0,0
5206,8*,1,41,51,12,32,22,62,Abstract_Concrete_6tasks_simseq_2seq_listtask_switchAB_fMRI,8078510,14235,32154,2,27,67,A2,weapon,5,8*,3913.839224,4208.850694,295.0114693,0,0
4010,8*,1,41,51,12,31,21,62,Abstract_Concrete_6tasks_simseq_2seq_listtask_switchAB_fMRI,8078510,14235,32154,2,28,68,B5,weapon,5,8*,3913.839224,4221.850693,308.0114683,0,0
3102,9(,1,42,52,11,32,22,61,Abstract_Concrete_6tasks_simseq_2seq_listtask_switchAB_fMRI,8078510,14235,32154,2,29,69,A1,helmet,1,9(,3913.839224,4233.850227,320.0110024,0,0
3696,9(,1,41,52,12,32,22,61,Abstract_Concrete_6tasks_simseq_2seq_listtask_switchAB_fMRI,8078510,14235,32154,2,30,70,B3,helmet,1,9(,3913.839224,4244.85106,331.0118354,0,0
2977,4$,1,42,51,12,32,22,62,Abstract_Concrete_6tasks_simseq_2seq_listtask_switchAB_fMRI,8078510,14235,32154,2,31,71,A4,glasses,3,4$,3913.839224,4255.849883,342.0106583,0,0
4256,3#,1,41,51,12,31,22,61,Abstract_Concrete_6tasks_simseq_2seq_listtask_switchAB_fMRI,8078510,14235,32154,2,32,72,B2,vest,2,3#,3913.839224,4265.849539,352.0103145,0,0
3365,8*,1,42,51,11,31,21,62,Abstract_Concrete_6tasks_simseq_2seq_listtask_switchAB_fMRI,8078510,14235,32154,2,33,73,A2,weapon,5,8*,3913.839224,4277.850816,364.0115916,0,0
3014,9(,1,42,52,11,32,21,61,Abstract_Concrete_6tasks_simseq_2seq_listtask_switchAB_fMRI,8078510,14235,32154,2,34,74,B3,helmet,1,9(,3913.839224,4288.850894,375.0116698,0,0
3101,2@,1,42,51,11,32,22,61,Abstract_Concrete_6tasks_simseq_2seq_listtask_switchAB_fMRI,8078510,14235,32154,2,35,75,A5,tools,6,2@,3913.839224,4299.851223,386.0119983,0,0
3199,4$,1,42,51,12,32,21,61,Abstract_Concrete_6tasks_simseq_2seq_listtask_switchAB_fMRI,8078510,14235,32154,2,36,76,B1,glasses,3,4$,3913.839224,4310.851897,397.0126725,0,0
3383,4$,1,41,51,12,32,21,62,Abstract_Concrete_6tasks_simseq_2seq_listtask_switchAB_fMRI,8078510,14235,32154,2,37,77,A4,glasses,3,4$,3913.839224,4321.850086,408.0108619,0,0
4697,2@,1,42,51,12,31,22,62,Abstract_Concrete_6tasks_simseq_2seq_listtask_switchAB_fMRI,8078510,14235,32154,2,38,78,B4,tools,6,2@,3913.839224,4332.850581,419.011357,0,0
3962,8*,0,42,51,12,31,21,61,Abstract_Concrete_6tasks_simseq_2seq_listtask_switchAB_fMRI,8078510,14235,32154,2,39,79,A3,vest,2,3#,3913.839224,4344.850869,431.0116451,4348.826166,434.9869419
2173,8*,1,42,52,12,32,21,62,Abstract_Concrete_6tasks_simseq_2seq_listtask_switchAB_fMRI,8078510,14235,32154,2,40,80,B5,weapon,5,8*,3913.839224,4355.849558,442.0103335,0,0
3003,4$,1,41,51,12,32,22,61,Abstract_Concrete_6tasks_simseq_2seq_listtask_switchAB_fMRI,8078510,14235,32154,3,1,81,A4,glasses,3,4$,4402.519714,4410.530783,8.0110693,0,0
3274,2@,1,41,51,11,32,22,62,Abstract_Concrete_6tasks_simseq_2seq_listtask_switchAB_fMRI,8078510,14235,32154,3,2,82,B4,tools,6,2@,4402.519714,4421.529494,19.0097804,0,0
3780,3#,1,41,52,12,32,21,61,Abstract_Concrete_6tasks_simseq_2seq_listtask_switchAB_fMRI,8078510,14235,32154,3,3,83,A3,vest,2,3#,4402.519714,4432.532194,30.0124804,0,0
2201,9(,1,42,52,11,32,22,61,Abstract_Concrete_6tasks_simseq_2seq_listtask_switchAB_fMRI,8078510,14235,32154,3,4,84,B3,helmet,1,9(,4402.519714,4443.531642,41.0119286,0,0
4096,9(,1,42,52,12,32,21,61,Abstract_Concrete_6tasks_simseq_2seq_listtask_switchAB_fMRI,8078510,14235,32154,3,5,85,A1,helmet,1,9(,4402.519714,4453.532117,51.0124032,0,0
3571,3#,1,41,52,12,31,21,61,Abstract_Concrete_6tasks_simseq_2seq_listtask_switchAB_fMRI,8078510,14235,32154,3,6,86,B2,vest,2,3#,4402.519714,4465.531481,63.0117677,0,0
2778,3#,1,41,51,11,31,21,61,Abstract_Concrete_6tasks_simseq_2seq_listtask_switchAB_fMRI,8078510,14235,32154,3,7,87,A3,vest,2,3#,4402.519714,4476.532439,74.0127249,0,0
4128,2@,1,42,51,11,32,22,62,Abstract_Concrete_6tasks_simseq_2seq_listtask_switchAB_fMRI,8078510,14235,32154,3,8,88,B4,tools,6,2@,4402.519714,4486.528997,84.0092838,0,0
3034,2@,1,42,51,11,31,22,62,Abstract_Concrete_6tasks_simseq_2seq_listtask_switchAB_fMRI,8078510,14235,32154,3,9,89,A5,tools,6,2@,4402.519714,4498.530895,96.0111814,0,0
3066,2@,1,42,51,11,31,22,62,Abstract_Concrete_6tasks_simseq_2seq_listtask_switchAB_fMRI,8078510,14235,32154,3,10,90,B4,tools,6,2@,4402.519714,4509.531132,107.0114187,0,0
3802,8*,1,42,52,11,31,21,61,Abstract_Concrete_6tasks_simseq_2seq_listtask_switchAB_fMRI,8078510,14235,32154,3,11,91,A2,weapon,5,8*,4402.519714,4520.532607,118.0128933,0,0
3445,8*,1,41,51,11,31,21,61,Abstract_Concrete_6tasks_simseq_2seq_listtask_switchAB_fMRI,8078510,14235,32154,3,12,92,B5,weapon,5,8*,4402.519714,4531.530895,129.0111814,0,0
3140,9(,1,42,52,11,31,21,61,Abstract_Concrete_6tasks_simseq_2seq_listtask_switchAB_fMRI,8078510,14235,32154,3,13,93,A1,helmet,1,9(,4402.519714,4542.532165,140.0124509,0,0
2973,9(,1,42,52,12,31,21,61,Abstract_Concrete_6tasks_simseq_2seq_listtask_switchAB_fMRI,8078510,14235,32154,3,14,94,B3,helmet,1,9(,4402.519714,4553.531134,151.0114205,0,0
2699,2@,1,41,52,11,31,22,61,Abstract_Concrete_6tasks_simseq_2seq_listtask_switchAB_fMRI,8078510,14235,32154,3,15,95,A5,tools,6,2@,4402.519714,4563.531791,161.0120773,0,0
2646,2@,1,41,52,12,31,21,62,Abstract_Concrete_6tasks_simseq_2seq_listtask_switchAB_fMRI,8078510,14235,32154,3,16,96,B4,tools,6,2@,4402.519714,4573.533257,171.0135437,0,0
2423,8*,1,41,52,11,31,22,62,Abstract_Concrete_6tasks_simseq_2seq_listtask_switchAB_fMRI,8078510,14235,32154,3,17,97,A2,weapon,5,8*,4402.519714,4583.53353,181.013816,0,0
2971,3#,1,42,51,11,31,21,62,Abstract_Concrete_6tasks_simseq_2seq_listtask_switchAB_fMRI,8078510,14235,32154,3,18,98,B2,vest,2,3#,4402.519714,4593.531621,191.0119069,0,0
2998,9(,0,42,52,11,31,22,61,Abstract_Concrete_6tasks_simseq_2seq_listtask_switchAB_fMRI,8078510,14235,32154,3,19,99,A3,vest,2,3#,4402.519714,4603.531855,201.0121416,4606.544218,204.0245042
3398,4$,1,42,52,12,31,21,61,Abstract_Concrete_6tasks_simseq_2seq_listtask_switchAB_fMRI,8078510,14235,32154,3,20,100,B1,glasses,3,4$,4402.519714,4614.530897,212.0111832,0,0
2163,9(,1,42,51,12,31,21,61,Abstract_Concrete_6tasks_simseq_2seq_listtask_switchAB_fMRI,8078510,14235,32154,3,21,101,A1,helmet,1,9(,4402.519714,4625.533344,223.0136299,0,0
3498,3#,1,42,51,11,32,21,62,Abstract_Concrete_6tasks_simseq_2seq_listtask_switchAB_fMRI,8078510,14235,32154,3,22,102,B2,vest,2,3#,4402.519714,4635.534155,233.0144418,0,0
2496,4$,1,42,51,12,31,22,61,Abstract_Concrete_6tasks_simseq_2seq_listtask_switchAB_fMRI,8078510,14235,32154,3,23,103,A4,glasses,3,4$,4402.519714,4646.531048,244.0113343,0,0
4655,4$,1,42,52,12,31,21,62,Abstract_Concrete_6tasks_simseq_2seq_listtask_switchAB_fMRI,8078510,14235,32154,3,24,104,B1,glasses,3,4$,4402.519714,4656.532178,254.0124642,0,0
2290,9(,1,42,51,12,31,21,62,Abstract_Concrete_6tasks_simseq_2seq_listtask_switchAB_fMRI,8078510,14235,32154,3,25,105,A1,helmet,1,9(,4402.519714,4668.528876,266.0091628,0,0
3552,8*,1,41,52,11,32,21,61,Abstract_Concrete_6tasks_simseq_2seq_listtask_switchAB_fMRI,8078510,14235,32154,3,26,106,B5,weapon,5,8*,4402.519714,4678.529981,276.0102678,0,0
1701,2@,1,41,51,11,31,22,62,Abstract_Concrete_6tasks_simseq_2seq_listtask_switchAB_fMRI,8078510,14235,32154,3,27,107,A5,tools,6,2@,4402.519714,4689.529964,287.0102505,0,0
3659,3#,1,41,51,12,32,21,61,Abstract_Concrete_6tasks_simseq_2seq_listtask_switchAB_fMRI,8078510,14235,32154,3,28,108,B2,vest,2,3#,4402.519714,4698.532205,296.0124918,0,0
4133,8*,1,41,52,11,31,21,61,Abstract_Concrete_6tasks_simseq_2seq_listtask_switchAB_fMRI,8078510,14235,32154,3,29,109,A2,weapon,5,8*,4402.519714,4709.530708,307.0109942,0,0
2955,8*,1,41,51,12,32,21,61,Abstract_Concrete_6tasks_simseq_2seq_listtask_switchAB_fMRI,8078510,14235,32154,3,30,110,B5,weapon,5,8*,4402.519714,4721.531664,319.0119505,0,0
2758,8*,1,41,51,11,32,21,61,Abstract_Concrete_6tasks_simseq_2seq_listtask_switchAB_fMRI,8078510,14235,32154,3,31,111,A2,weapon,5,8*,4402.519714,4731.532248,329.0125343,0,0
3689,4$,1,41,52,12,32,21,61,Abstract_Concrete_6tasks_simseq_2seq_listtask_switchAB_fMRI,8078510,14235,32154,3,32,112,B1,glasses,3,4$,4402.519714,4741.530928,339.0112143,0,0
2520,4$,1,42,51,11,32,22,62,Abstract_Concrete_6tasks_simseq_2seq_listtask_switchAB_fMRI,8078510,14235,32154,3,33,113,A4,glasses,3,4$,4402.519714,4752.530233,350.010519,0,0
2951,9(,1,41,52,11,32,22,61,Abstract_Concrete_6tasks_simseq_2seq_listtask_switchAB_fMRI,8078510,14235,32154,3,34,114,B3,helmet,1,9(,4402.519714,4762.530417,360.010703,0,0
5072,3#,0,42,51,11,31,21,62,Abstract_Concrete_6tasks_simseq_2seq_listtask_switchAB_fMRI,8078510,14235,32154,3,35,115,A5,tools,6,2@,4402.519714,4772.529956,370.0102424,4777.616201,375.0964875
3026,4$,1,42,51,12,31,21,62,Abstract_Concrete_6tasks_simseq_2seq_listtask_switchAB_fMRI,8078510,14235,32154,3,36,116,B1,glasses,3,4$,4402.519714,4785.530374,383.0106602,0,0
2337,9(,0,41,52,12,31,22,61,Abstract_Concrete_6tasks_simseq_2seq_listtask_switchAB_fMRI,8078510,14235,32154,3,37,117,A3,vest,2,3#,4402.519714,4796.532907,394.0131931,4798.881917,396.3622035
1979,9(,1,41,52,11,31,22,62,Abstract_Concrete_6tasks_simseq_2seq_listtask_switchAB_fMRI,8078510,14235,32154,3,38,118,B3,helmet,1,9(,4402.519714,4806.529715,404.0100012,0,0
4149,4$,1,42,52,11,31,22,61,Abstract_Concrete_6tasks_simseq_2seq_listtask_switchAB_fMRI,8078510,14235,32154,3,39,119,A4,glasses,3,4$,4402.519714,4815.530725,413.0110118,0,0
3096,8*,1,42,51,12,31,22,61,Abstract_Concrete_6tasks_simseq_2seq_listtask_switchAB_fMRI,8078510,14235,32154,3,40,120,B5,weapon,5,8*,4402.519714,4827.532693,425.0129792,0,0
2509,3#,1,41,52,12,32,22,61,Abstract_Concrete_6tasks_simseq_2seq_listtask_switchAB_fMRI,8078510,14235,32154,4,1,121,A3,vest,2,3#,5074.922286,5082.933039,8.010753196,0,0
1911,8*,1,42,51,11,31,21,61,Abstract_Concrete_6tasks_simseq_2seq_listtask_switchAB_fMRI,8078510,14235,32154,4,2,122,B5,weapon,5,8*,5074.922286,5092.926888,18.00460204,0,0
2577,2@,1,41,51,12,32,22,61,Abstract_Concrete_6tasks_simseq_2seq_listtask_switchAB_fMRI,8078510,14235,32154,4,3,123,A5,tools,6,2@,5074.922286,5101.934281,27.011995,0,0
2650,9(,1,42,51,12,32,22,61,Abstract_Concrete_6tasks_simseq_2seq_listtask_switchAB_fMRI,8078510,14235,32154,4,4,124,B3,helmet,1,9(,5074.922286,5111.935682,37.0133958,0,0
2573,9(,1,41,52,11,31,22,61,Abstract_Concrete_6tasks_simseq_2seq_listtask_switchAB_fMRI,8078510,14235,32154,4,5,125,A1,helmet,1,9(,5074.922286,5121.933659,47.0113733,0,0
3296,4$,1,42,52,11,31,21,61,Abstract_Concrete_6tasks_simseq_2seq_listtask_switchAB_fMRI,8078510,14235,32154,4,6,126,B1,glasses,3,4$,5074.922286,5131.936095,57.0138089,0,0
3523,4$,1,42,51,12,31,21,61,Abstract_Concrete_6tasks_simseq_2seq_listtask_switchAB_fMRI,8078510,14235,32154,4,7,127,A4,glasses,3,4$,5074.922286,5142.934535,68.0122493,0,0
2201,9(,1,42,51,12,32,22,61,Abstract_Concrete_6tasks_simseq_2seq_listtask_switchAB_fMRI,8078510,14235,32154,4,8,128,B3,helmet,1,9(,5074.922286,5153.933278,79.0109919,0,0
3661,8*,1,42,51,11,31,21,61,Abstract_Concrete_6tasks_simseq_2seq_listtask_switchAB_fMRI,8078510,14235,32154,4,9,129,A2,weapon,5,8*,5074.922286,5163.935767,89.0134811,0,0
2744,3#,1,41,52,12,32,21,62,Abstract_Concrete_6tasks_simseq_2seq_listtask_switchAB_fMRI,8078510,14235,32154,4,10,130,B2,vest,2,3#,5074.922286,5174.933979,100.0116929,0,0
2359,9(,1,41,52,12,32,22,62,Abstract_Concrete_6tasks_simseq_2seq_listtask_switchAB_fMRI,8078510,14235,32154,4,11,131,A1,helmet,1,9(,5074.922286,5184.933019,110.0107332,0,0
2926,4$,1,41,52,11,31,22,61,Abstract_Concrete_6tasks_simseq_2seq_listtask_switchAB_fMRI,8078510,14235,32154,4,12,132,B1,glasses,3,4$,5074.922286,5194.933715,120.0114287,0,0
2746,3#,1,41,52,11,31,21,62,Abstract_Concrete_6tasks_simseq_2seq_listtask_switchAB_fMRI,8078510,14235,32154,4,13,133,A3,vest,2,3#,5074.922286,5204.93493,130.0126437,0,0
3498,2@,1,42,52,12,31,22,62,Abstract_Concrete_6tasks_simseq_2seq_listtask_switchAB_fMRI,8078510,14235,32154,4,14,134,B4,tools,6,2@,5074.922286,5214.932969,140.0106834,0,0
5756,8*,1,42,51,11,32,22,62,Abstract_Concrete_6tasks_simseq_2seq_listtask_switchAB_fMRI,8078510,14235,32154,4,15,135,A2,weapon,5,8*,5074.922286,5225.935723,151.0134366,0,0
3097,3#,1,42,52,12,31,21,61,Abstract_Concrete_6tasks_simseq_2seq_listtask_switchAB_fMRI,8078510,14235,32154,4,16,136,B2,vest,2,3#,5074.922286,5238.934696,164.0124098,0,0
5627,8*,0,42,52,11,31,22,61,Abstract_Concrete_6tasks_simseq_2seq_listtask_switchAB_fMRI,8078510,14235,32154,4,17,137,A3,vest,2,3#,5074.922286,5249.933877,175.0115909,5255.579066,180.6567798
2893,9(,1,41,51,11,31,22,61,Abstract_Concrete_6tasks_simseq_2seq_listtask_switchAB_fMRI,8078510,14235,32154,4,18,138,B3,helmet,1,9(,5074.922286,5262.933256,188.0109702,0,0
3239,3#,1,41,51,11,32,22,62,Abstract_Concrete_6tasks_simseq_2seq_listtask_switchAB_fMRI,8078510,14235,32154,4,19,139,A3,vest,2,3#,5074.922286,5272.93194,198.0096539,0,0
2239,8*,1,41,52,11,32,21,62,Abstract_Concrete_6tasks_simseq_2seq_listtask_switchAB_fMRI,8078510,14235,32154,4,20,140,B5,weapon,5,8*,5074.922286,5283.934676,209.0123903,0,0
2699,2@,1,42,52,12,32,22,62,Abstract_Concrete_6tasks_simseq_2seq_listtask_switchAB_fMRI,8078510,14235,32154,4,21,141,A5,tools,6,2@,5074.922286,5293.932569,219.010283,0,0
3936,4$,1,42,51,11,32,22,61,Abstract_Concrete_6tasks_simseq_2seq_listtask_switchAB_fMRI,8078510,14235,32154,4,22,142,B1,glasses,3,4$,5074.922286,5303.935213,229.0129269,0,0
3635,8*,1,42,51,12,31,21,61,Abstract_Concrete_6tasks_simseq_2seq_listtask_switchAB_fMRI,8078510,14235,32154,4,23,143,A2,weapon,5,8*,5074.922286,5314.932819,240.0105334,0,0
2782,8*,1,42,52,11,32,21,62,Abstract_Concrete_6tasks_simseq_2seq_listtask_switchAB_fMRI,8078510,14235,32154,4,24,144,B5,weapon,5,8*,5074.922286,5325.932883,251.0105968,0,0
2490,2@,1,42,52,11,32,21,61,Abstract_Concrete_6tasks_simseq_2seq_listtask_switchAB_fMRI,8078510,14235,32154,4,25,145,A5,tools,6,2@,5074.922286,5335.932578,261.010292,0,0
3554,4$,1,41,52,12,31,21,61,Abstract_Concrete_6tasks_simseq_2seq_listtask_switchAB_fMRI,8078510,14235,32154,4,26,146,B1,glasses,3,4$,5074.922286,5345.933419,271.0111332,0,0
3178,8*,1,42,51,11,31,22,61,Abstract_Concrete_6tasks_simseq_2seq_listtask_switchAB_fMRI,8078510,14235,32154,4,27,147,A2,weapon,5,8*,5074.922286,5356.934909,282.0126231,0,0
2955,2@,1,41,51,12,31,22,62,Abstract_Concrete_6tasks_simseq_2seq_listtask_switchAB_fMRI,8078510,14235,32154,4,28,148,B4,tools,6,2@,5074.922286,5367.935116,293.01283,0,0
2998,9(,0,42,51,11,32,22,62,Abstract_Concrete_6tasks_simseq_2seq_listtask_switchAB_fMRI,8078510,14235,32154,4,29,149,A4,glasses,3,4$,5074.922286,5377.933436,303.0111499,5380.944269,306.0219828
3558,9(,1,41,51,11,31,22,62,Abstract_Concrete_6tasks_simseq_2seq_listtask_switchAB_fMRI,8078510,14235,32154,4,30,150,B3,helmet,1,9(,5074.922286,5388.93341,314.0111237,0,0
4707,9(,1,41,52,11,31,21,62,Abstract_Concrete_6tasks_simseq_2seq_listtask_switchAB_fMRI,8078510,14235,32154,4,31,151,A1,helmet,1,9(,5074.922286,5399.93488,325.0125944,0,0
2711,2@,1,42,51,11,31,22,62,Abstract_Concrete_6tasks_simseq_2seq_listtask_switchAB_fMRI,8078510,14235,32154,4,32,152,B4,tools,6,2@,5074.922286,5411.935139,337.0128529,0,0
3674,4$,0,41,51,11,32,22,62,Abstract_Concrete_6tasks_simseq_2seq_listtask_switchAB_fMRI,8078510,14235,32154,4,33,153,A5,tools,6,2@,5074.922286,5421.933392,347.011106,5425.619634,350.6973479
1488,8*,1,41,51,12,31,22,61,Abstract_Concrete_6tasks_simseq_2seq_listtask_switchAB_fMRI,8078510,14235,32154,4,34,154,B5,weapon,5,8*,5074.922286,5432.932967,358.010681,0,0
4301,3#,0,42,51,11,31,21,61,Abstract_Concrete_6tasks_simseq_2seq_listtask_switchAB_fMRI,8078510,14235,32154,4,35,155,A1,helmet,1,9(,5074.922286,5441.934977,367.0126909,5446.248172,371.3258857
2222,2@,1,42,52,12,32,22,61,Abstract_Concrete_6tasks_simseq_2seq_listtask_switchAB_fMRI,8078510,14235,32154,4,36,156,B4,tools,6,2@,5074.922286,5453.933277,379.0109908,0,0
3558,4$,1,41,52,11,31,22,61,Abstract_Concrete_6tasks_simseq_2seq_listtask_switchAB_fMRI,8078510,14235,32154,4,37,157,A4,glasses,3,4$,5074.922286,5463.933667,389.0113807,0,0
5113,3#,1,42,52,11,32,22,61,Abstract_Concrete_6tasks_simseq_2seq_listtask_switchAB_fMRI,8078510,14235,32154,4,38,158,B2,vest,2,3#,5074.922286,5474.932198,400.0099121,0,0
3261,4$,1,41,52,11,32,22,61,Abstract_Concrete_6tasks_simseq_2seq_listtask_switchAB_fMRI,8078510,14235,32154,4,39,159,A4,glasses,3,4$,5074.922286,5487.933894,413.0116079,0,0
2461,3#,1,42,52,12,32,21,62,Abstract_Concrete_6tasks_simseq_2seq_listtask_switchAB_fMRI,8078510,14235,32154,4,40,160,B2,vest,2,3#,5074.922286,5498.933813,424.0115268,0,0
3348,9(,1,42,51,12,31,22,61,Abstract_Concrete_6tasks_simseq_2seq_listtask_switchAB_fMRI,8078510,14235,32154,5,1,161,A1,helmet,1,9(,5560.40503,5568.415976,8.0109463,0,0
1696,8*,1,42,52,12,32,21,62,Abstract_Concrete_6tasks_simseq_2seq_listtask_switchAB_fMRI,8078510,14235,32154,5,2,162,B5,weapon,5,8*,5560.40503,5579.415767,19.0107366,0,0
4051,8*,1,42,52,11,31,22,61,Abstract_Concrete_6tasks_simseq_2seq_listtask_switchAB_fMRI,8078510,14235,32154,5,3,163,A2,weapon,5,8*,5560.40503,5588.419555,28.0145252,0,0
2493,2@,1,41,52,12,31,21,61,Abstract_Concrete_6tasks_simseq_2seq_listtask_switchAB_fMRI,8078510,14235,32154,5,4,164,B4,tools,6,2@,5560.40503,5600.416846,40.0118157,0,0
2867,9(,1,41,52,11,32,22,61,Abstract_Concrete_6tasks_simseq_2seq_listtask_switchAB_fMRI,8078510,14235,32154,5,5,165,A1,helmet,1,9(,5560.40503,5610.415925,50.0108953,0,0
3408,2@,1,41,51,12,32,21,62,Abstract_Concrete_6tasks_simseq_2seq_listtask_switchAB_fMRI,8078510,14235,32154,5,6,166,B4,tools,6,2@,5560.40503,5620.416919,60.0118888,0,0
2752,2@,1,42,51,11,31,22,61,Abstract_Concrete_6tasks_simseq_2seq_listtask_switchAB_fMRI,8078510,14235,32154,5,7,167,A5,tools,6,2@,5560.40503,5631.417798,71.0127685,0,0
1363,8*,1,41,51,12,31,22,62,Abstract_Concrete_6tasks_simseq_2seq_listtask_switchAB_fMRI,8078510,14235,32154,5,8,168,B5,weapon,5,8*,5560.40503,5641.416539,81.0115086,0,0
4224,4$,1,42,51,12,31,22,62,Abstract_Concrete_6tasks_simseq_2seq_listtask_switchAB_fMRI,8078510,14235,32154,5,9,169,A4,glasses,3,4$,5560.40503,5650.418467,90.0134368,0,0
4546,4$,1,42,52,11,31,22,61,Abstract_Concrete_6tasks_simseq_2seq_listtask_switchAB_fMRI,8078510,14235,32154,5,10,170,B1,glasses,3,4$,5560.40503,5662.417321,102.0122915,0,0
3233,3#,1,42,52,12,31,22,61,Abstract_Concrete_6tasks_simseq_2seq_listtask_switchAB_fMRI,8078510,14235,32154,5,11,171,A3,vest,2,3#,5560.40503,5674.416153,114.0111232,0,0
5942,9(,1,41,51,11,32,21,62,Abstract_Concrete_6tasks_simseq_2seq_listtask_switchAB_fMRI,8078510,14235,32154,5,12,172,B3,helmet,1,9(,5560.40503,5685.418301,125.0132709,0,0
2461,9(,1,41,52,11,32,22,61,Abstract_Concrete_6tasks_simseq_2seq_listtask_switchAB_fMRI,8078510,14235,32154,5,13,173,A1,helmet,1,9(,5560.40503,5698.415712,138.0106825,0,0
2872,8*,1,41,51,11,32,22,62,Abstract_Concrete_6tasks_simseq_2seq_listtask_switchAB_fMRI,8078510,14235,32154,5,14,174,B5,weapon,5,8*,5560.40503,5708.41848,148.0134502,0,0
3897,8*,1,42,51,11,31,21,62,Abstract_Concrete_6tasks_simseq_2seq_listtask_switchAB_fMRI,8078510,14235,32154,5,15,175,A2,weapon,5,8*,5560.40503,5718.417411,158.0123808,0,0
2493,4$,1,42,52,12,31,21,61,Abstract_Concrete_6tasks_simseq_2seq_listtask_switchAB_fMRI,8078510,14235,32154,5,16,176,B1,glasses,3,4$,5560.40503,5729.416664,169.0116342,0,0
2491,2@,1,42,52,11,31,21,62,Abstract_Concrete_6tasks_simseq_2seq_listtask_switchAB_fMRI,8078510,14235,32154,5,17,177,A5,tools,6,2@,5560.40503,5739.416298,179.0112682,0,0
1988,8*,1,41,51,12,32,21,61,Abstract_Concrete_6tasks_simseq_2seq_listtask_switchAB_fMRI,8078510,14235,32154,5,18,178,B5,weapon,5,8*,5560.40503,5749.415763,189.0107329,0,0
2632,4$,1,42,52,12,31,22,62,Abstract_Concrete_6tasks_simseq_2seq_listtask_switchAB_fMRI,8078510,14235,32154,5,19,179,A4,glasses,3,4$,5560.40503,5758.416178,198.0111481,0,0
4425,3#,1,41,51,11,31,22,62,Abstract_Concrete_6tasks_simseq_2seq_listtask_switchAB_fMRI,8078510,14235,32154,5,20,180,B2,vest,2,3#,5560.40503,5768.417972,208.0129416,0,0
4847,9(,1,41,52,12,32,22,62,Abstract_Concrete_6tasks_simseq_2seq_listtask_switchAB_fMRI,8078510,14235,32154,5,21,181,A1,helmet,1,9(,5560.40503,5780.418478,220.013448,0,0
2120,2@,1,42,51,12,31,22,62,Abstract_Concrete_6tasks_simseq_2seq_listtask_switchAB_fMRI,8078510,14235,32154,5,22,182,B4,tools,6,2@,5560.40503,5792.417161,232.012131,0,0
2810,4$,1,41,51,11,32,21,61,Abstract_Concrete_6tasks_simseq_2seq_listtask_switchAB_fMRI,8078510,14235,32154,5,23,183,A4,glasses,3,4$,5560.40503,5802.418315,242.0132854,0,0
3666,4$,1,41,52,12,32,21,62,Abstract_Concrete_6tasks_simseq_2seq_listtask_switchAB_fMRI,8078510,14235,32154,5,24,184,B1,glasses,3,4$,5560.40503,5812.415407,252.010377,0,0
5222,4$,0,42,51,12,31,22,61,Abstract_Concrete_6tasks_simseq_2seq_listtask_switchAB_fMRI,8078510,14235,32154,5,25,185,A3,vest,2,3#,5560.40503,5823.415274,263.0102444,5828.653367,268.2483374
3595,9(,1,41,52,11,32,21,61,Abstract_Concrete_6tasks_simseq_2seq_listtask_switchAB_fMRI,8078510,14235,32154,5,26,186,B3,helmet,1,9(,5560.40503,5836.417806,276.0127765,0,0
2014,2@,1,42,51,12,31,22,61,Abstract_Concrete_6tasks_simseq_2seq_listtask_switchAB_fMRI,8078510,14235,32154,5,27,187,A5,tools,6,2@,5560.40503,5847.417784,287.0127541,0,0
3228,2@,1,41,51,11,31,21,62,Abstract_Concrete_6tasks_simseq_2seq_listtask_switchAB_fMRI,8078510,14235,32154,5,28,188,B4,tools,6,2@,5560.40503,5857.417321,297.0122913,0,0
4270,2@,1,42,51,12,32,21,62,Abstract_Concrete_6tasks_simseq_2seq_listtask_switchAB_fMRI,8078510,14235,32154,5,29,189,A5,tools,6,2@,5560.40503,5868.418397,308.0133672,0,0
5836,9(,1,42,51,11,32,21,62,Abstract_Concrete_6tasks_simseq_2seq_listtask_switchAB_fMRI,8078510,14235,32154,5,30,190,B3,helmet,1,9(,5560.40503,5880.419061,320.0140314,0,0
2226,3#,1,42,52,11,31,21,62,Abstract_Concrete_6tasks_simseq_2seq_listtask_switchAB_fMRI,8078510,14235,32154,5,31,191,A3,vest,2,3#,5560.40503,5893.417433,333.0124031,0,0
3064,9(,1,42,51,12,31,22,62,Abstract_Concrete_6tasks_simseq_2seq_listtask_switchAB_fMRI,8078510,14235,32154,5,32,192,B3,helmet,1,9(,5560.40503,5903.418354,343.0133245,0,0
6073,8*,1,41,51,12,32,21,62,Abstract_Concrete_6tasks_simseq_2seq_listtask_switchAB_fMRI,8078510,14235,32154,5,33,193,A2,weapon,5,8*,5560.40503,5914.416336,354.0113057,0,0
3295,4$,1,42,51,12,32,21,62,Abstract_Concrete_6tasks_simseq_2seq_listtask_switchAB_fMRI,8078510,14235,32154,5,34,194,B1,glasses,3,4$,5560.40503,5928.416166,368.0111359,0,0
3324,4$,1,42,51,12,31,22,61,Abstract_Concrete_6tasks_simseq_2seq_listtask_switchAB_fMRI,8078510,14235,32154,5,35,195,A4,glasses,3,4$,5560.40503,5939.415687,379.0106572,0,0
4216,3#,1,41,51,11,31,21,62,Abstract_Concrete_6tasks_simseq_2seq_listtask_switchAB_fMRI,8078510,14235,32154,5,36,196,B2,vest,2,3#,5560.40503,5950.415793,390.0107628,0,0
2892,3#,1,41,52,11,31,21,62,Abstract_Concrete_6tasks_simseq_2seq_listtask_switchAB_fMRI,8078510,14235,32154,5,37,197,A3,vest,2,3#,5560.40503,5962.417004,402.0119739,0,0
3774,3#,1,41,52,11,32,22,61,Abstract_Concrete_6tasks_simseq_2seq_listtask_switchAB_fMRI,8078510,14235,32154,5,38,198,B2,vest,2,3#,5560.40503,5972.415161,412.0101314,0,0
4076,8*,1,42,52,12,32,21,61,Abstract_Concrete_6tasks_simseq_2seq_listtask_switchAB_fMRI,8078510,14235,32154,5,39,199,A2,weapon,5,8*,5560.40503,5983.415321,423.0102914,0,0
3170,3#,1,41,52,12,32,22,62,Abstract_Concrete_6tasks_simseq_2seq_listtask_switchAB_fMRI,8078510,14235,32154,5,40,200,B2,vest,2,3#,5560.40503,5995.418012,435.0129819,0,0
3717,8*,1,41,51,12,31,21,62,Abstract_Concrete_6tasks_simseq_2seq_listtask_switchAB_fMRI,8078510,14235,32154,6,1,201,A2,weapon,5,8*,6043.084342,6051.095346,8.0110042,0,0
2408,9(,1,41,52,11,32,21,62,Abstract_Concrete_6tasks_simseq_2seq_listtask_switchAB_fMRI,8078510,14235,32154,6,2,202,B3,helmet,1,9(,6043.084342,6062.095414,19.0110721,0,0
2970,8*,1,41,52,11,32,22,62,Abstract_Concrete_6tasks_simseq_2seq_listtask_switchAB_fMRI,8078510,14235,32154,6,3,203,A2,weapon,5,8*,6043.084342,6072.097622,29.0132801,0,0
3782,4$,1,41,51,12,31,21,62,Abstract_Concrete_6tasks_simseq_2seq_listtask_switchAB_fMRI,8078510,14235,32154,6,4,204,B1,glasses,3,4$,6043.084342,6082.096175,39.011833,0,0
3100,4$,1,41,52,12,31,21,62,Abstract_Concrete_6tasks_simseq_2seq_listtask_switchAB_fMRI,8078510,14235,32154,6,5,205,A4,glasses,3,4$,6043.084342,6093.095983,50.0116412,0,0
2391,8*,1,42,52,12,32,22,62,Abstract_Concrete_6tasks_simseq_2seq_listtask_switchAB_fMRI,8078510,14235,32154,6,6,206,B5,weapon,5,8*,6043.084342,6104.097447,61.0131049,0,0
2762,8*,1,42,51,11,31,21,61,Abstract_Concrete_6tasks_simseq_2seq_listtask_switchAB_fMRI,8078510,14235,32154,6,7,207,A2,weapon,5,8*,6043.084342,6114.099898,71.0155561,0,0
1750,8*,1,41,52,12,31,22,61,Abstract_Concrete_6tasks_simseq_2seq_listtask_switchAB_fMRI,8078510,14235,32154,6,8,208,B5,weapon,5,8*,6043.084342,6124.096432,81.0120905,0,0
2061,2@,1,41,52,11,32,21,61,Abstract_Concrete_6tasks_simseq_2seq_listtask_switchAB_fMRI,8078510,14235,32154,6,9,209,A5,tools,6,2@,6043.084342,6133.096005,90.0116635,0,0
4845,9(,1,41,52,11,31,22,62,Abstract_Concrete_6tasks_simseq_2seq_listtask_switchAB_fMRI,8078510,14235,32154,6,10,210,B3,helmet,1,9(,6043.084342,6143.095957,100.0116157,0,0
2915,3#,1,41,52,12,31,21,61,Abstract_Concrete_6tasks_simseq_2seq_listtask_switchAB_fMRI,8078510,14235,32154,6,11,211,A3,vest,2,3#,6043.084342,6155.09579,112.0114482,0,0
3056,4$,1,42,51,12,31,22,62,Abstract_Concrete_6tasks_simseq_2seq_listtask_switchAB_fMRI,8078510,14235,32154,6,12,212,B1,glasses,3,4$,6043.084342,6165.095218,122.0108759,0,0
2595,4$,1,42,52,11,31,21,62,Abstract_Concrete_6tasks_simseq_2seq_listtask_switchAB_fMRI,8078510,14235,32154,6,13,213,A4,glasses,3,4$,6043.084342,6176.097123,133.0127809,0,0
2670,9(,1,41,51,12,31,21,62,Abstract_Concrete_6tasks_simseq_2seq_listtask_switchAB_fMRI,8078510,14235,32154,6,14,214,B3,helmet,1,9(,6043.084342,6186.095099,143.0107568,0,0
4404,9(,1,41,51,12,32,21,61,Abstract_Concrete_6tasks_simseq_2seq_listtask_switchAB_fMRI,8078510,14235,32154,6,15,215,A1,helmet,1,9(,6043.084342,6196.09547,153.0111281,0,0
2004,8*,1,42,52,12,31,22,62,Abstract_Concrete_6tasks_simseq_2seq_listtask_switchAB_fMRI,8078510,14235,32154,6,16,216,B5,weapon,5,8*,6043.084342,6208.096385,165.0120432,0,0
1830,2@,1,42,52,12,31,22,62,Abstract_Concrete_6tasks_simseq_2seq_listtask_switchAB_fMRI,8078510,14235,32154,6,17,217,A5,tools,6,2@,6043.084342,6218.095946,175.0116043,0,0
3385,2@,1,42,51,11,32,22,61,Abstract_Concrete_6tasks_simseq_2seq_listtask_switchAB_fMRI,8078510,14235,32154,6,18,218,B4,tools,6,2@,6043.084342,6227.096318,184.0119762,0,0
3198,3#,1,42,51,11,31,22,62,Abstract_Concrete_6tasks_simseq_2seq_listtask_switchAB_fMRI,8078510,14235,32154,6,19,219,A3,vest,2,3#,6043.084342,6238.096278,195.0119362,0,0
3523,3#,1,41,51,11,31,21,61,Abstract_Concrete_6tasks_simseq_2seq_listtask_switchAB_fMRI,8078510,14235,32154,6,20,220,B2,vest,2,3#,6043.084342,6249.097553,206.0132113,0,0
2969,9(,1,41,52,11,31,22,61,Abstract_Concrete_6tasks_simseq_2seq_listtask_switchAB_fMRI,8078510,14235,32154,6,21,221,A1,helmet,1,9(,6043.084342,6260.095146,217.0108043,0,0
2967,3#,1,41,52,11,31,22,61,Abstract_Concrete_6tasks_simseq_2seq_listtask_switchAB_fMRI,8078510,14235,32154,6,22,222,B2,vest,2,3#,6043.084342,6270.095284,227.0109422,0,0
3026,3#,1,42,51,12,32,22,61,Abstract_Concrete_6tasks_simseq_2seq_listtask_switchAB_fMRI,8078510,14235,32154,6,23,223,A3,vest,2,3#,6043.084342,6280.094673,237.0103316,0,0
2586,4$,1,42,52,12,32,21,61,Abstract_Concrete_6tasks_simseq_2seq_listtask_switchAB_fMRI,8078510,14235,32154,6,24,224,B1,glasses,3,4$,6043.084342,6291.095174,248.0108319,0,0
2616,8*,1,41,51,12,32,21,62,Abstract_Concrete_6tasks_simseq_2seq_listtask_switchAB_fMRI,8078510,14235,32154,6,25,225,A2,weapon,5,8*,6043.084342,6301.096918,258.0125766,0,0
2621,8*,1,41,52,11,31,22,61,Abstract_Concrete_6tasks_simseq_2seq_listtask_switchAB_fMRI,8078510,14235,32154,6,26,226,B5,weapon,5,8*,6043.084342,6311.095609,268.0112673,0,0
2037,2@,1,42,51,11,31,22,62,Abstract_Concrete_6tasks_simseq_2seq_listtask_switchAB_fMRI,8078510,14235,32154,6,27,227,A5,tools,6,2@,6043.084342,6321.095557,278.011215,0,0
3724,2@,1,41,51,11,31,22,62,Abstract_Concrete_6tasks_simseq_2seq_listtask_switchAB_fMRI,8078510,14235,32154,6,28,228,B4,tools,6,2@,6043.084342,6331.097154,288.0128125,0,0
2495,2@,1,41,52,11,31,21,61,Abstract_Concrete_6tasks_simseq_2seq_listtask_switchAB_fMRI,8078510,14235,32154,6,29,229,A5,tools,6,2@,6043.084342,6342.096913,299.0125716,0,0
3524,3#,1,42,51,12,31,22,61,Abstract_Concrete_6tasks_simseq_2seq_listtask_switchAB_fMRI,8078510,14235,32154,6,30,230,B2,vest,2,3#,6043.084342,6352.096163,309.0118214,0,0
3911,4$,1,42,52,12,31,22,61,Abstract_Concrete_6tasks_simseq_2seq_listtask_switchAB_fMRI,8078510,14235,32154,6,31,231,A4,glasses,3,4$,6043.084342,6363.094925,320.0105833,0,0
1619,2@,1,42,52,12,31,22,61,Abstract_Concrete_6tasks_simseq_2seq_listtask_switchAB_fMRI,8078510,14235,32154,6,32,232,B4,tools,6,2@,6043.084342,6374.095383,331.0110409,0,0
3124,9(,1,42,51,12,32,21,61,Abstract_Concrete_6tasks_simseq_2seq_listtask_switchAB_fMRI,8078510,14235,32154,6,33,233,A1,helmet,1,9(,6043.084342,6383.097449,340.0131068,0,0
1871,3#,1,42,51,11,32,22,62,Abstract_Concrete_6tasks_simseq_2seq_listtask_switchAB_fMRI,8078510,14235,32154,6,34,234,B2,vest,2,3#,6043.084342,6394.096042,351.0116998,0,0
8022,4$,1,41,51,12,32,22,62,Abstract_Concrete_6tasks_simseq_2seq_listtask_switchAB_fMRI,8078510,14235,32154,6,35,235,A4,glasses,3,4$,6043.084342,6403.094412,360.0100706,0,0
5029,4$,1,41,52,11,31,21,61,Abstract_Concrete_6tasks_simseq_2seq_listtask_switchAB_fMRI,8078510,14235,32154,6,36,236,B1,glasses,3,4$,6043.084342,6419.097944,376.0136021,0,0
2342,9(,0,42,51,11,32,21,61,Abstract_Concrete_6tasks_simseq_2seq_listtask_switchAB_fMRI,8078510,14235,32154,6,37,237,A3,vest,2,3#,6043.084342,6432.095864,389.0115219,6434.45126,391.3669181
1612,2@,1,41,52,11,32,21,61,Abstract_Concrete_6tasks_simseq_2seq_listtask_switchAB_fMRI,8078510,14235,32154,6,38,238,B4,tools,6,2@,6043.084342,6442.092693,399.008351,0,0
4267,9(,1,42,51,12,31,22,62,Abstract_Concrete_6tasks_simseq_2seq_listtask_switchAB_fMRI,8078510,14235,32154,6,39,239,A1,helmet,1,9(,6043.084342,6451.097607,408.013265,0,0
2863,9(,1,42,52,12,31,21,61,Abstract_Concrete_6tasks_simseq_2seq_listtask_switchAB_fMRI,8078510,14235,32154,6,40,240,B3,helmet,1,9(,6043.084342,6463.095924,420.0115822,0,0
