rt1,resp1,correct1,features_1,features_2,features_3,features_4,features_5,features_6,ExpName,subNo,seqA,seqB,block,trial,trialnum,cuetype,task,subtaskcode,corr_resp1,onsetTime_s,onsetTime_cue,onset_cue,onsetTime_cue_fb,onset_cue_fb
4357,3#,0,31,42,51,12,62,22,Abstract_Concrete_6tasks_simseq_2seq_listtask_switchAB_fMRI,822030,12453,54132,1,1,1,A5,glasses,3,7&,3070.7962971,3078.8106604,8.01436329999979,3083.1904529,12.3941557999997
2615,9(,1,32,42,52,12,61,21,Abstract_Concrete_6tasks_simseq_2seq_listtask_switchAB_fMRI,822030,12453,54132,1,2,2,B2,weapon,5,9(,3070.7962971,3090.8071449,20.0108477999997,0,0
2111,4$,1,31,41,52,12,62,22,Abstract_Concrete_6tasks_simseq_2seq_listtask_switchAB_fMRI,822030,12453,54132,1,3,3,A1,helmet,1,4$,3070.7962971,3100.8077909,30.0114937999997,0,0
4402,2@,1,32,42,52,11,62,22,Abstract_Concrete_6tasks_simseq_2seq_listtask_switchAB_fMRI,822030,12453,54132,1,4,4,B5,vest,2,2@,3070.7962971,3110.8104372,40.0141400999996,0,0
2487,2@,1,32,41,52,12,62,22,Abstract_Concrete_6tasks_simseq_2seq_listtask_switchAB_fMRI,822030,12453,54132,1,5,5,A2,vest,2,2@,3070.7962971,3122.809996,52.0136988999998,0,0
2429,7&,1,32,41,51,11,62,21,Abstract_Concrete_6tasks_simseq_2seq_listtask_switchAB_fMRI,822030,12453,54132,1,6,6,B4,glasses,3,7&,3070.7962971,3132.8101884,62.0138912999996,0,0
5943,3#,1,31,42,51,12,62,22,Abstract_Concrete_6tasks_simseq_2seq_listtask_switchAB_fMRI,822030,12453,54132,1,7,7,A4,tools,6,3#,3070.7962971,3142.8104371,72.0141399999998,0,0
4466,9(,1,31,42,51,12,62,21,Abstract_Concrete_6tasks_simseq_2seq_listtask_switchAB_fMRI,822030,12453,54132,1,8,8,B2,weapon,5,9(,3070.7962971,3155.8093072,85.0130101,0,0
3663,9(,1,31,41,51,12,61,22,Abstract_Concrete_6tasks_simseq_2seq_listtask_switchAB_fMRI,822030,12453,54132,1,9,9,A3,weapon,5,9(,3070.7962971,3167.80826,97.0119628999996,0,0
3371,9(,1,31,42,52,12,61,22,Abstract_Concrete_6tasks_simseq_2seq_listtask_switchAB_fMRI,822030,12453,54132,1,10,10,B2,weapon,5,9(,3070.7962971,3178.8097208,108.0134237,0,0
3335,9(,1,32,41,51,11,61,22,Abstract_Concrete_6tasks_simseq_2seq_listtask_switchAB_fMRI,822030,12453,54132,1,11,11,A3,weapon,5,9(,3070.7962971,3189.8086097,119.0123126,0,0
6168,2@,1,32,41,51,12,61,21,Abstract_Concrete_6tasks_simseq_2seq_listtask_switchAB_fMRI,822030,12453,54132,1,12,12,B5,vest,2,2@,3070.7962971,3200.8088099,130.0125128,0,0
2762,2@,1,31,41,51,11,61,22,Abstract_Concrete_6tasks_simseq_2seq_listtask_switchAB_fMRI,822030,12453,54132,1,13,13,A2,vest,2,2@,3070.7962971,3214.8067728,144.0104757,0,0
3052,7&,1,32,41,52,12,62,21,Abstract_Concrete_6tasks_simseq_2seq_listtask_switchAB_fMRI,822030,12453,54132,1,14,14,B4,glasses,3,7&,3070.7962971,3224.807177,154.0108799,0,0
2776,4$,1,31,41,51,11,61,21,Abstract_Concrete_6tasks_simseq_2seq_listtask_switchAB_fMRI,822030,12453,54132,1,15,15,A1,helmet,1,4$,3070.7962971,3235.8124447,165.0161476,0,0
2624,9(,1,31,41,52,12,62,21,Abstract_Concrete_6tasks_simseq_2seq_listtask_switchAB_fMRI,822030,12453,54132,1,16,16,B2,weapon,5,9(,3070.7962971,3245.8081959,175.0118988,0,0
4518,3#,1,32,42,52,12,61,22,Abstract_Concrete_6tasks_simseq_2seq_listtask_switchAB_fMRI,822030,12453,54132,1,17,17,A4,tools,6,3#,3070.7962971,3255.8078108,185.0115137,0,0
5809,4$,1,31,42,51,12,62,22,Abstract_Concrete_6tasks_simseq_2seq_listtask_switchAB_fMRI,822030,12453,54132,1,18,18,B3,helmet,1,4$,3070.7962971,3267.8096472,197.0133501,0,0
2268,4$,1,32,42,52,11,62,22,Abstract_Concrete_6tasks_simseq_2seq_listtask_switchAB_fMRI,822030,12453,54132,1,19,19,A1,helmet,1,4$,3070.7962971,3280.8085991,210.012302,0,0
3390,2@,1,32,41,51,11,61,22,Abstract_Concrete_6tasks_simseq_2seq_listtask_switchAB_fMRI,822030,12453,54132,1,20,20,B5,vest,2,2@,3070.7962971,3290.8086079,220.0123108,0,0
2225,2@,1,31,42,52,11,62,22,Abstract_Concrete_6tasks_simseq_2seq_listtask_switchAB_fMRI,822030,12453,54132,1,21,21,A2,vest,2,2@,3070.7962971,3301.8079269,231.0116298,0,0
2176,3#,1,32,42,52,11,62,21,Abstract_Concrete_6tasks_simseq_2seq_listtask_switchAB_fMRI,822030,12453,54132,1,22,22,B1,tools,6,3#,3070.7962971,3311.8086627,241.0123656,0,0
3858,4$,1,32,41,51,12,62,21,Abstract_Concrete_6tasks_simseq_2seq_listtask_switchAB_fMRI,822030,12453,54132,1,23,23,A1,helmet,1,4$,3070.7962971,3321.8080982,251.0118011,0,0
2030,2@,1,31,42,51,12,62,22,Abstract_Concrete_6tasks_simseq_2seq_listtask_switchAB_fMRI,822030,12453,54132,1,24,24,B5,vest,2,2@,3070.7962971,3332.8081176,262.0118205,0,0
4252,3#,1,32,41,51,12,62,22,Abstract_Concrete_6tasks_simseq_2seq_listtask_switchAB_fMRI,822030,12453,54132,1,25,25,A4,tools,6,3#,3070.7962971,3342.8097569,272.0134598,0,0
3549,3#,1,32,41,51,12,61,21,Abstract_Concrete_6tasks_simseq_2seq_listtask_switchAB_fMRI,822030,12453,54132,1,26,26,B1,tools,6,3#,3070.7962971,3354.8076486,284.0113515,0,0
2669,7&,1,31,41,52,12,61,22,Abstract_Concrete_6tasks_simseq_2seq_listtask_switchAB_fMRI,822030,12453,54132,1,27,27,A5,glasses,3,7&,3070.7962971,3365.8081047,295.0118076,0,0
1707,7&,1,32,42,52,12,62,21,Abstract_Concrete_6tasks_simseq_2seq_listtask_switchAB_fMRI,822030,12453,54132,1,28,28,B4,glasses,3,7&,3070.7962971,3375.8068416,305.0105445,0,0
1261,7&,1,31,41,52,12,61,21,Abstract_Concrete_6tasks_simseq_2seq_listtask_switchAB_fMRI,822030,12453,54132,1,29,29,A5,glasses,3,7&,3070.7962971,3384.8072855,314.0109884,0,0
7226,2@,0,31,41,52,12,62,21,Abstract_Concrete_6tasks_simseq_2seq_listtask_switchAB_fMRI,822030,12453,54132,1,30,30,B3,helmet,1,4$,3070.7962971,3393.8094442,323.0131471,3401.0521323,330.2558352
3345,9(,1,31,41,51,11,61,22,Abstract_Concrete_6tasks_simseq_2seq_listtask_switchAB_fMRI,822030,12453,54132,1,31,31,A3,weapon,5,9(,3070.7962971,3408.8069041,338.010607,0,0
1590,7&,1,31,42,51,12,62,21,Abstract_Concrete_6tasks_simseq_2seq_listtask_switchAB_fMRI,822030,12453,54132,1,32,32,B4,glasses,3,7&,3070.7962971,3419.8074156,349.0111185,0,0
2623,3#,1,32,42,52,11,61,21,Abstract_Concrete_6tasks_simseq_2seq_listtask_switchAB_fMRI,822030,12453,54132,1,33,33,A4,tools,6,3#,3070.7962971,3428.8075285,358.0112314,0,0
4537,4$,1,31,41,51,12,62,21,Abstract_Concrete_6tasks_simseq_2seq_listtask_switchAB_fMRI,822030,12453,54132,1,34,34,B3,helmet,1,4$,3070.7962971,3438.8074817,368.0111846,0,0
3653,2@,1,31,41,52,11,62,22,Abstract_Concrete_6tasks_simseq_2seq_listtask_switchAB_fMRI,822030,12453,54132,1,35,35,A2,vest,2,2@,3070.7962971,3450.8070368,380.0107397,0,0
3500,4$,1,31,42,52,12,61,21,Abstract_Concrete_6tasks_simseq_2seq_listtask_switchAB_fMRI,822030,12453,54132,1,36,36,B3,helmet,1,4$,3070.7962971,3461.8079821,391.011685,0,0
3838,7&,1,31,42,51,12,62,21,Abstract_Concrete_6tasks_simseq_2seq_listtask_switchAB_fMRI,822030,12453,54132,1,37,37,A5,glasses,3,7&,3070.7962971,3472.8074138,402.0111167,0,0
2034,3#,1,32,42,52,12,62,22,Abstract_Concrete_6tasks_simseq_2seq_listtask_switchAB_fMRI,822030,12453,54132,1,38,38,B1,tools,6,3#,3070.7962971,3483.8065828,413.0102857,0,0
3697,9(,1,31,41,51,12,62,22,Abstract_Concrete_6tasks_simseq_2seq_listtask_switchAB_fMRI,822030,12453,54132,1,39,39,A3,weapon,5,9(,3070.7962971,3493.807873,423.0115759,0,0
2739,3#,1,31,42,52,11,61,21,Abstract_Concrete_6tasks_simseq_2seq_listtask_switchAB_fMRI,822030,12453,54132,1,40,40,B1,tools,6,3#,3070.7962971,3504.8053521,434.009055,0,0
2235,7&,1,32,42,51,11,61,21,Abstract_Concrete_6tasks_simseq_2seq_listtask_switchAB_fMRI,822030,12453,54132,2,1,41,A5,glasses,3,7&,3571.1560146,3579.16644558665,8.01043098664968,0,0
3165,9(,1,32,42,51,12,61,22,Abstract_Concrete_6tasks_simseq_2seq_listtask_switchAB_fMRI,822030,12453,54132,2,2,42,B2,weapon,5,9(,3571.1560146,3589.1657691,18.0097544999999,0,0
3856,9(,1,31,41,52,11,62,21,Abstract_Concrete_6tasks_simseq_2seq_listtask_switchAB_fMRI,822030,12453,54132,2,3,43,A3,weapon,5,9(,3571.1560146,3600.1691036,29.013089,0,0
1706,7&,1,31,41,51,11,61,21,Abstract_Concrete_6tasks_simseq_2seq_listtask_switchAB_fMRI,822030,12453,54132,2,4,44,B4,glasses,3,7&,3571.1560146,3611.1663411,40.0103264999998,0,0
2751,4$,1,31,42,51,11,61,22,Abstract_Concrete_6tasks_simseq_2seq_listtask_switchAB_fMRI,822030,12453,54132,2,5,45,A1,helmet,1,4$,3571.1560146,3620.167913,49.0118984000001,0,0
7200,7&,0,32,41,52,12,62,22,Abstract_Concrete_6tasks_simseq_2seq_listtask_switchAB_fMRI,822030,12453,54132,2,6,46,B5,vest,2,2@,3571.1560146,3630.1674483,59.0114337,3637.387143,66.2311283999998
3493,3#,1,31,41,52,12,61,21,Abstract_Concrete_6tasks_simseq_2seq_listtask_switchAB_fMRI,822030,12453,54132,2,7,47,A4,tools,6,3#,3571.1560146,3645.1663747,74.0103600999996,0,0
3842,4$,1,31,42,51,12,62,22,Abstract_Concrete_6tasks_simseq_2seq_listtask_switchAB_fMRI,822030,12453,54132,2,8,48,B3,helmet,1,4$,3571.1560146,3656.1685569,85.0125423,0,0
2164,4$,1,31,41,52,12,62,21,Abstract_Concrete_6tasks_simseq_2seq_listtask_switchAB_fMRI,822030,12453,54132,2,9,49,A1,helmet,1,4$,3571.1560146,3667.1687971,96.0127825,0,0
1883,4$,1,31,41,52,11,62,22,Abstract_Concrete_6tasks_simseq_2seq_listtask_switchAB_fMRI,822030,12453,54132,2,10,50,B3,helmet,1,4$,3571.1560146,3677.1680237,106.0120091,0,0
3443,2@,1,32,42,52,11,62,22,Abstract_Concrete_6tasks_simseq_2seq_listtask_switchAB_fMRI,822030,12453,54132,2,11,51,A2,vest,2,2@,3571.1560146,3686.1671689,115.0111543,0,0
1723,7&,1,31,42,52,11,61,22,Abstract_Concrete_6tasks_simseq_2seq_listtask_switchAB_fMRI,822030,12453,54132,2,12,52,B4,glasses,3,7&,3571.1560146,3697.1699203,126.0139057,0,0
5269,9(,1,32,42,52,11,62,22,Abstract_Concrete_6tasks_simseq_2seq_listtask_switchAB_fMRI,822030,12453,54132,2,13,53,A3,weapon,5,9(,3571.1560146,3706.1681578,135.0121432,0,0
2160,3#,1,32,42,51,12,62,22,Abstract_Concrete_6tasks_simseq_2seq_listtask_switchAB_fMRI,822030,12453,54132,2,14,54,B1,tools,6,3#,3571.1560146,3719.1668549,148.0108403,0,0
2716,4$,1,31,42,52,11,61,21,Abstract_Concrete_6tasks_simseq_2seq_listtask_switchAB_fMRI,822030,12453,54132,2,15,55,A1,helmet,1,4$,3571.1560146,3729.1691197,158.0131051,0,0
2289,9(,1,31,42,51,11,61,21,Abstract_Concrete_6tasks_simseq_2seq_listtask_switchAB_fMRI,822030,12453,54132,2,16,56,B2,weapon,5,9(,3571.1560146,3739.168342,168.0123274,0,0
2492,2@,1,31,41,52,11,62,21,Abstract_Concrete_6tasks_simseq_2seq_listtask_switchAB_fMRI,822030,12453,54132,2,17,57,A2,vest,2,2@,3571.1560146,3749.167561,178.0115464,0,0
4768,4$,1,31,41,51,12,62,21,Abstract_Concrete_6tasks_simseq_2seq_listtask_switchAB_fMRI,822030,12453,54132,2,18,58,B3,helmet,1,4$,3571.1560146,3759.1683884,188.0123738,0,0
2797,2@,1,32,41,52,12,62,21,Abstract_Concrete_6tasks_simseq_2seq_listtask_switchAB_fMRI,822030,12453,54132,2,19,59,A2,vest,2,2@,3571.1560146,3771.1676693,200.0116547,0,0
1397,7&,1,31,41,51,12,61,21,Abstract_Concrete_6tasks_simseq_2seq_listtask_switchAB_fMRI,822030,12453,54132,2,20,60,B4,glasses,3,7&,3571.1560146,3781.1676692,210.0116546,0,0
1694,2@,1,31,41,52,11,61,21,Abstract_Concrete_6tasks_simseq_2seq_listtask_switchAB_fMRI,822030,12453,54132,2,21,61,A2,vest,2,2@,3571.1560146,3790.16692,219.0109054,0,0
2493,2@,1,32,41,52,12,61,21,Abstract_Concrete_6tasks_simseq_2seq_listtask_switchAB_fMRI,822030,12453,54132,2,22,62,B5,vest,2,2@,3571.1560146,3799.1689506,228.012936,0,0
2837,7&,1,32,41,52,11,62,21,Abstract_Concrete_6tasks_simseq_2seq_listtask_switchAB_fMRI,822030,12453,54132,2,23,63,A5,glasses,3,7&,3571.1560146,3809.1664819,238.0104673,0,0
3417,4$,1,32,42,51,11,61,21,Abstract_Concrete_6tasks_simseq_2seq_listtask_switchAB_fMRI,822030,12453,54132,2,24,64,B3,helmet,1,4$,3571.1560146,3819.166595,248.0105804,0,0
3988,9(,1,32,42,51,12,61,21,Abstract_Concrete_6tasks_simseq_2seq_listtask_switchAB_fMRI,822030,12453,54132,2,25,65,A3,weapon,5,9(,3571.1560146,3830.1677464,259.0117318,0,0
3172,3#,1,31,42,51,12,62,22,Abstract_Concrete_6tasks_simseq_2seq_listtask_switchAB_fMRI,822030,12453,54132,2,26,66,B1,tools,6,3#,3571.1560146,3842.1688986,271.012884,0,0
3994,9(,1,31,42,51,11,62,21,Abstract_Concrete_6tasks_simseq_2seq_listtask_switchAB_fMRI,822030,12453,54132,2,27,67,A3,weapon,5,9(,3571.1560146,3853.1686598,282.0126452,0,0
1531,3#,1,31,41,52,11,61,21,Abstract_Concrete_6tasks_simseq_2seq_listtask_switchAB_fMRI,822030,12453,54132,2,28,68,B1,tools,6,3#,3571.1560146,3865.1667361,294.0107215,0,0
3638,4$,1,32,41,51,12,61,21,Abstract_Concrete_6tasks_simseq_2seq_listtask_switchAB_fMRI,822030,12453,54132,2,29,69,A1,helmet,1,4$,3571.1560146,3874.1690149,303.0130003,0,0
2792,9(,1,32,41,52,11,61,21,Abstract_Concrete_6tasks_simseq_2seq_listtask_switchAB_fMRI,822030,12453,54132,2,30,70,B2,weapon,5,9(,3571.1560146,3885.1684398,314.0124252,0,0
4297,7&,1,32,42,51,11,61,21,Abstract_Concrete_6tasks_simseq_2seq_listtask_switchAB_fMRI,822030,12453,54132,2,31,71,A5,glasses,3,7&,3571.1560146,3895.1670345,324.0110199,0,0
1346,3#,1,32,42,51,11,61,22,Abstract_Concrete_6tasks_simseq_2seq_listtask_switchAB_fMRI,822030,12453,54132,2,32,72,B1,tools,6,3#,3571.1560146,3907.1664579,336.0104433,0,0
3470,3#,1,32,41,52,11,61,21,Abstract_Concrete_6tasks_simseq_2seq_listtask_switchAB_fMRI,822030,12453,54132,2,33,73,A4,tools,6,3#,3571.1560146,3916.1672466,345.011232,0,0
3845,7&,0,31,42,51,12,62,22,Abstract_Concrete_6tasks_simseq_2seq_listtask_switchAB_fMRI,822030,12453,54132,2,34,74,B5,vest,2,2@,3571.1560146,3927.1668424,356.0108278,3931.0257649,359.8697503
2866,3#,1,31,42,51,12,62,21,Abstract_Concrete_6tasks_simseq_2seq_listtask_switchAB_fMRI,822030,12453,54132,2,35,75,A4,tools,6,3#,3571.1560146,3938.1671434,367.0111288,0,0
8643,4$,0,31,41,51,12,61,21,Abstract_Concrete_6tasks_simseq_2seq_listtask_switchAB_fMRI,822030,12453,54132,2,36,76,B4,glasses,3,7&,3571.1560146,3948.1682879,377.0122733,3956.8288484,385.6728338
4607,3#,1,31,41,51,11,62,21,Abstract_Concrete_6tasks_simseq_2seq_listtask_switchAB_fMRI,822030,12453,54132,2,37,77,A4,tools,6,3#,3571.1560146,3964.1681765,393.0121619,0,0
2330,9(,1,32,42,51,12,62,21,Abstract_Concrete_6tasks_simseq_2seq_listtask_switchAB_fMRI,822030,12453,54132,2,38,78,B2,weapon,5,9(,3571.1560146,3976.1680499,405.0120353,0,0
3719,7&,1,32,42,52,11,62,21,Abstract_Concrete_6tasks_simseq_2seq_listtask_switchAB_fMRI,822030,12453,54132,2,39,79,A5,glasses,3,7&,3571.1560146,3986.1693755,415.0133609,0,0
1985,2@,1,31,41,52,12,61,22,Abstract_Concrete_6tasks_simseq_2seq_listtask_switchAB_fMRI,822030,12453,54132,2,40,80,B5,vest,2,2@,3571.1560146,3997.1670389,426.0110243,0,0
3262,2@,1,32,41,52,11,62,21,Abstract_Concrete_6tasks_simseq_2seq_listtask_switchAB_fMRI,822030,12453,54132,3,1,81,A2,vest,2,2@,4049.354199,4057.3637247,8.00952570000027,0,0
2747,9(,1,32,42,52,12,61,22,Abstract_Concrete_6tasks_simseq_2seq_listtask_switchAB_fMRI,822030,12453,54132,3,2,82,B2,weapon,5,9(,4049.354199,4068.3638867,19.0096877000001,0,0
1636,7&,1,32,42,52,11,61,21,Abstract_Concrete_6tasks_simseq_2seq_listtask_switchAB_fMRI,822030,12453,54132,3,3,83,A5,glasses,3,7&,4049.354199,4078.3664784,29.0122793999999,0,0
3520,4$,1,31,41,51,12,62,21,Abstract_Concrete_6tasks_simseq_2seq_listtask_switchAB_fMRI,822030,12453,54132,3,4,84,B3,helmet,1,4$,4049.354199,4087.3664299,38.0122309000003,0,0
1996,9(,1,32,42,52,11,61,22,Abstract_Concrete_6tasks_simseq_2seq_listtask_switchAB_fMRI,822030,12453,54132,3,5,85,A3,weapon,5,9(,4049.354199,4098.3682496,49.0140506000002,0,0
2777,4$,1,32,42,52,11,61,21,Abstract_Concrete_6tasks_simseq_2seq_listtask_switchAB_fMRI,822030,12453,54132,3,6,86,B3,helmet,1,4$,4049.354199,4108.3672663,59.0130672999999,0,0
3138,3#,1,31,41,52,12,62,21,Abstract_Concrete_6tasks_simseq_2seq_listtask_switchAB_fMRI,822030,12453,54132,3,7,87,A4,tools,6,3#,4049.354199,4118.3684631,69.0142640999998,0,0
3488,9(,1,31,42,51,11,62,21,Abstract_Concrete_6tasks_simseq_2seq_listtask_switchAB_fMRI,822030,12453,54132,3,8,88,B2,weapon,5,9(,4049.354199,4129.3679665,80.0137675000001,0,0
2378,4$,1,32,42,51,11,61,22,Abstract_Concrete_6tasks_simseq_2seq_listtask_switchAB_fMRI,822030,12453,54132,3,9,89,A1,helmet,1,4$,4049.354199,4140.3652579,91.0110589000001,0,0
2896,7&,1,31,41,51,12,61,21,Abstract_Concrete_6tasks_simseq_2seq_listtask_switchAB_fMRI,822030,12453,54132,3,10,90,B4,glasses,3,7&,4049.354199,4150.3664628,101.0122638,0,0
2999,2@,1,31,42,52,12,62,21,Abstract_Concrete_6tasks_simseq_2seq_listtask_switchAB_fMRI,822030,12453,54132,3,11,91,A2,vest,2,2@,4049.354199,4160.3676757,111.0134767,0,0
3173,7&,1,32,42,51,12,61,22,Abstract_Concrete_6tasks_simseq_2seq_listtask_switchAB_fMRI,822030,12453,54132,3,12,92,B4,glasses,3,7&,4049.354199,4171.3676693,122.0134703,0,0
2164,7&,1,32,42,51,11,61,21,Abstract_Concrete_6tasks_simseq_2seq_listtask_switchAB_fMRI,822030,12453,54132,3,13,93,A5,glasses,3,7&,4049.354199,4182.3668391,133.0126401,0,0
4436,4$,1,31,41,52,11,61,22,Abstract_Concrete_6tasks_simseq_2seq_listtask_switchAB_fMRI,822030,12453,54132,3,14,94,B3,helmet,1,4$,4049.354199,4192.3668303,143.012631300001,0,0
672,9(,1,31,42,52,11,62,21,Abstract_Concrete_6tasks_simseq_2seq_listtask_switchAB_fMRI,822030,12453,54132,3,15,95,A3,weapon,5,9(,4049.354199,4204.3672401,155.0130411,0,0
1647,3#,1,31,41,52,12,61,22,Abstract_Concrete_6tasks_simseq_2seq_listtask_switchAB_fMRI,822030,12453,54132,3,16,96,B1,tools,6,3#,4049.354199,4212.3654747,163.0112757,0,0
4021,3#,1,31,42,51,12,61,21,Abstract_Concrete_6tasks_simseq_2seq_listtask_switchAB_fMRI,822030,12453,54132,3,17,97,A4,tools,6,3#,4049.354199,4221.3675717,172.0133727,0,0
2865,2@,1,32,41,52,11,62,22,Abstract_Concrete_6tasks_simseq_2seq_listtask_switchAB_fMRI,822030,12453,54132,3,18,98,B5,vest,2,2@,4049.354199,4233.3670058,184.0128068,0,0
1016,7&,1,31,41,51,11,61,22,Abstract_Concrete_6tasks_simseq_2seq_listtask_switchAB_fMRI,822030,12453,54132,3,19,99,A5,glasses,3,7&,4049.354199,4243.3659108,194.0117118,0,0
2501,9(,1,31,41,52,12,61,21,Abstract_Concrete_6tasks_simseq_2seq_listtask_switchAB_fMRI,822030,12453,54132,3,20,100,B2,weapon,5,9(,4049.354199,4252.3678702,203.0136712,0,0
2467,3#,1,31,41,51,12,61,22,Abstract_Concrete_6tasks_simseq_2seq_listtask_switchAB_fMRI,822030,12453,54132,3,21,101,A4,tools,6,3#,4049.354199,4262.3673946,213.0131956,0,0
2799,7&,1,32,42,52,11,62,22,Abstract_Concrete_6tasks_simseq_2seq_listtask_switchAB_fMRI,822030,12453,54132,3,22,102,B4,glasses,3,7&,4049.354199,4272.3678297,223.0136307,0,0
2278,7&,1,32,42,52,12,61,22,Abstract_Concrete_6tasks_simseq_2seq_listtask_switchAB_fMRI,822030,12453,54132,3,23,103,A5,glasses,3,7&,4049.354199,4282.364149,233.00995,0,0
3501,4$,1,32,41,52,12,61,21,Abstract_Concrete_6tasks_simseq_2seq_listtask_switchAB_fMRI,822030,12453,54132,3,24,104,B3,helmet,1,4$,4049.354199,4292.3649825,243.0107835,0,0
2538,2@,1,31,41,51,11,61,22,Abstract_Concrete_6tasks_simseq_2seq_listtask_switchAB_fMRI,822030,12453,54132,3,25,105,A2,vest,2,2@,4049.354199,4303.365481,254.011282,0,0
1362,3#,1,32,42,51,11,62,22,Abstract_Concrete_6tasks_simseq_2seq_listtask_switchAB_fMRI,822030,12453,54132,3,26,106,B1,tools,6,3#,4049.354199,4313.3668923,264.0126933,0,0
2764,3#,1,32,41,52,11,62,21,Abstract_Concrete_6tasks_simseq_2seq_listtask_switchAB_fMRI,822030,12453,54132,3,27,107,A4,tools,6,3#,4049.354199,4322.3673868,273.0131878,0,0
1917,7&,1,32,42,51,11,62,21,Abstract_Concrete_6tasks_simseq_2seq_listtask_switchAB_fMRI,822030,12453,54132,3,28,108,B4,glasses,3,7&,4049.354199,4332.3653088,283.0111098,0,0
2477,4$,1,32,42,51,11,62,22,Abstract_Concrete_6tasks_simseq_2seq_listtask_switchAB_fMRI,822030,12453,54132,3,29,109,A1,helmet,1,4$,4049.354199,4341.365165,292.010966,0,0
1579,3#,1,32,42,52,11,61,21,Abstract_Concrete_6tasks_simseq_2seq_listtask_switchAB_fMRI,822030,12453,54132,3,30,110,B1,tools,6,3#,4049.354199,4351.3660002,302.0118012,0,0
3672,2@,1,32,41,51,12,61,21,Abstract_Concrete_6tasks_simseq_2seq_listtask_switchAB_fMRI,822030,12453,54132,3,31,111,A2,vest,2,2@,4049.354199,4360.3647681,311.0105691,0,0
2571,2@,1,31,41,52,12,62,21,Abstract_Concrete_6tasks_simseq_2seq_listtask_switchAB_fMRI,822030,12453,54132,3,32,112,B5,vest,2,2@,4049.354199,4371.3644968,322.0102978,0,0
2428,4$,1,31,42,51,11,62,22,Abstract_Concrete_6tasks_simseq_2seq_listtask_switchAB_fMRI,822030,12453,54132,3,33,113,A1,helmet,1,4$,4049.354199,4381.3675882,332.0133892,0,0
1392,3#,1,32,41,52,12,61,21,Abstract_Concrete_6tasks_simseq_2seq_listtask_switchAB_fMRI,822030,12453,54132,3,34,114,B1,tools,6,3#,4049.354199,4391.3656619,342.0114629,0,0
3840,9(,1,32,41,52,12,61,22,Abstract_Concrete_6tasks_simseq_2seq_listtask_switchAB_fMRI,822030,12453,54132,3,35,115,A3,weapon,5,9(,4049.354199,4400.3676642,351.0134652,0,0
2391,2@,1,32,42,51,12,62,22,Abstract_Concrete_6tasks_simseq_2seq_listtask_switchAB_fMRI,822030,12453,54132,3,36,116,B5,vest,2,2@,4049.354199,4411.365332,362.011133,0,0
2500,4$,1,32,42,51,11,61,21,Abstract_Concrete_6tasks_simseq_2seq_listtask_switchAB_fMRI,822030,12453,54132,3,37,117,A1,helmet,1,4$,4049.354199,4421.365698,372.011499,0,0
3376,9(,1,32,41,51,11,62,21,Abstract_Concrete_6tasks_simseq_2seq_listtask_switchAB_fMRI,822030,12453,54132,3,38,118,B2,weapon,5,9(,4049.354199,4431.3656039,382.0114049,0,0
2796,9(,1,32,41,51,12,61,21,Abstract_Concrete_6tasks_simseq_2seq_listtask_switchAB_fMRI,822030,12453,54132,3,39,119,A3,weapon,5,9(,4049.354199,4442.3671506,393.0129516,0,0
1978,2@,1,32,42,52,11,62,21,Abstract_Concrete_6tasks_simseq_2seq_listtask_switchAB_fMRI,822030,12453,54132,3,40,120,B5,vest,2,2@,4049.354199,4452.3666089,403.0124099,0,0
2074,2@,1,32,42,52,12,62,21,Abstract_Concrete_6tasks_simseq_2seq_listtask_switchAB_fMRI,822030,12453,54132,4,1,121,B5,vest,2,2@,4611.9855943,4619.9964067,8.01081239999985,0,0
2266,4$,1,31,41,51,11,62,21,Abstract_Concrete_6tasks_simseq_2seq_listtask_switchAB_fMRI,822030,12453,54132,4,2,122,A1,helmet,1,4$,4611.9855943,4629.9972499,18.0116555999994,0,0
2199,9(,1,32,41,52,12,61,21,Abstract_Concrete_6tasks_simseq_2seq_listtask_switchAB_fMRI,822030,12453,54132,4,3,123,B2,weapon,5,9(,4611.9855943,4639.9969353,28.0113409999994,0,0
2160,9(,1,31,41,52,12,61,22,Abstract_Concrete_6tasks_simseq_2seq_listtask_switchAB_fMRI,822030,12453,54132,4,4,124,A3,weapon,5,9(,4611.9855943,4649.9995498,38.0139554999996,0,0
1299,3#,1,32,42,51,11,62,21,Abstract_Concrete_6tasks_simseq_2seq_listtask_switchAB_fMRI,822030,12453,54132,4,5,125,B1,tools,6,3#,4611.9855943,4659.9973185,48.0117241999997,0,0
4081,3#,1,31,41,52,12,61,21,Abstract_Concrete_6tasks_simseq_2seq_listtask_switchAB_fMRI,822030,12453,54132,4,6,126,A4,tools,6,3#,4611.9855943,4668.9999432,57.0143489000002,0,0
2061,4$,1,31,41,52,12,61,22,Abstract_Concrete_6tasks_simseq_2seq_listtask_switchAB_fMRI,822030,12453,54132,4,7,127,B3,helmet,1,4$,4611.9855943,4680.9976519,69.0120575999999,0,0
2141,7&,1,32,42,52,12,62,22,Abstract_Concrete_6tasks_simseq_2seq_listtask_switchAB_fMRI,822030,12453,54132,4,8,128,A5,glasses,3,7&,4611.9855943,4690.9970441,79.0114497999994,0,0
1664,3#,1,32,42,52,12,62,22,Abstract_Concrete_6tasks_simseq_2seq_listtask_switchAB_fMRI,822030,12453,54132,4,9,129,B1,tools,6,3#,4611.9855943,4700.9992549,89.0136605999996,0,0
2716,2@,1,31,42,52,12,61,22,Abstract_Concrete_6tasks_simseq_2seq_listtask_switchAB_fMRI,822030,12453,54132,4,10,130,A2,vest,2,2@,4611.9855943,4709.9977266,98.0121322999994,0,0
1896,7&,1,32,41,52,11,62,21,Abstract_Concrete_6tasks_simseq_2seq_listtask_switchAB_fMRI,822030,12453,54132,4,11,131,B4,glasses,3,7&,4611.9855943,4719.9967417,108.0111474,0,0
2751,3#,1,31,41,52,11,61,22,Abstract_Concrete_6tasks_simseq_2seq_listtask_switchAB_fMRI,822030,12453,54132,4,12,132,A4,tools,6,3#,4611.9855943,4728.9977202,117.0121259,0,0
1654,7&,1,31,42,52,12,61,21,Abstract_Concrete_6tasks_simseq_2seq_listtask_switchAB_fMRI,822030,12453,54132,4,13,133,B4,glasses,3,7&,4611.9855943,4738.9978878,127.0122935,0,0
2954,9(,1,31,42,51,12,61,21,Abstract_Concrete_6tasks_simseq_2seq_listtask_switchAB_fMRI,822030,12453,54132,4,14,134,A3,weapon,5,9(,4611.9855943,4747.9970345,136.0114402,0,0
3761,9(,1,31,41,52,12,62,21,Abstract_Concrete_6tasks_simseq_2seq_listtask_switchAB_fMRI,822030,12453,54132,4,15,135,B2,weapon,5,9(,4611.9855943,4757.9968398,146.0112455,0,0
2239,4$,1,31,42,51,12,62,22,Abstract_Concrete_6tasks_simseq_2seq_listtask_switchAB_fMRI,822030,12453,54132,4,16,136,A1,helmet,1,4$,4611.9855943,4768.998786,157.0131917,0,0
3220,9(,1,31,42,51,11,61,22,Abstract_Concrete_6tasks_simseq_2seq_listtask_switchAB_fMRI,822030,12453,54132,4,17,137,B2,weapon,5,9(,4611.9855943,4778.9976953,167.012100999999,0,0
1520,7&,1,32,42,52,12,62,22,Abstract_Concrete_6tasks_simseq_2seq_listtask_switchAB_fMRI,822030,12453,54132,4,18,138,A5,glasses,3,7&,4611.9855943,4789.9977529,178.0121586,0,0
2190,2@,1,31,41,51,12,62,22,Abstract_Concrete_6tasks_simseq_2seq_listtask_switchAB_fMRI,822030,12453,54132,4,19,139,B5,vest,2,2@,4611.9855943,4798.998639,187.0130447,0,0
2091,9(,1,31,41,51,12,62,22,Abstract_Concrete_6tasks_simseq_2seq_listtask_switchAB_fMRI,822030,12453,54132,4,20,140,A3,weapon,5,9(,4611.9855943,4808.9995277,197.0139334,0,0
1215,7&,1,31,42,52,12,61,21,Abstract_Concrete_6tasks_simseq_2seq_listtask_switchAB_fMRI,822030,12453,54132,4,21,141,B4,glasses,3,7&,4611.9855943,4818.9959537,207.0103594,0,0
3117,2@,1,31,42,51,11,61,21,Abstract_Concrete_6tasks_simseq_2seq_listtask_switchAB_fMRI,822030,12453,54132,4,22,142,A2,vest,2,2@,4611.9855943,4827.9991858,216.0135915,0,0
1179,7&,1,32,42,52,11,61,21,Abstract_Concrete_6tasks_simseq_2seq_listtask_switchAB_fMRI,822030,12453,54132,4,23,143,B4,glasses,3,7&,4611.9855943,4838.9985269,227.0129326,0,0
2285,2@,1,31,42,52,12,62,22,Abstract_Concrete_6tasks_simseq_2seq_listtask_switchAB_fMRI,822030,12453,54132,4,24,144,A2,vest,2,2@,4611.9855943,4847.9973533,236.011759,0,0
2196,4$,1,31,41,51,12,61,22,Abstract_Concrete_6tasks_simseq_2seq_listtask_switchAB_fMRI,822030,12453,54132,4,25,145,B3,helmet,1,4$,4611.9855943,4857.9977307,246.0121364,0,0
8334,3#,1,32,42,51,12,62,22,Abstract_Concrete_6tasks_simseq_2seq_listtask_switchAB_fMRI,822030,12453,54132,4,26,146,A4,tools,6,3#,4611.9855943,4867.997422,256.0118277,0,0
1857,4$,1,31,41,52,12,61,22,Abstract_Concrete_6tasks_simseq_2seq_listtask_switchAB_fMRI,822030,12453,54132,4,27,147,B3,helmet,1,4$,4611.9855943,4883.9964392,272.0108449,0,0
1507,9(,1,31,42,52,11,62,21,Abstract_Concrete_6tasks_simseq_2seq_listtask_switchAB_fMRI,822030,12453,54132,4,28,148,A3,weapon,5,9(,4611.9855943,4892.9964957,281.0109014,0,0
1505,4$,1,32,42,51,12,61,21,Abstract_Concrete_6tasks_simseq_2seq_listtask_switchAB_fMRI,822030,12453,54132,4,29,149,B3,helmet,1,4$,4611.9855943,4901.9965825,290.0109882,0,0
4926,3#,1,31,41,52,12,62,22,Abstract_Concrete_6tasks_simseq_2seq_listtask_switchAB_fMRI,822030,12453,54132,4,30,150,A4,tools,6,3#,4611.9855943,4910.9972087,299.011614399999,0,0
1279,3#,1,31,42,51,11,61,21,Abstract_Concrete_6tasks_simseq_2seq_listtask_switchAB_fMRI,822030,12453,54132,4,31,151,B1,tools,6,3#,4611.9855943,4922.9958688,311.010274499999,0,0
2296,4$,1,31,42,52,12,62,22,Abstract_Concrete_6tasks_simseq_2seq_listtask_switchAB_fMRI,822030,12453,54132,4,32,152,A1,helmet,1,4$,4611.9855943,4931.9970912,320.0114969,0,0
2471,2@,1,31,41,52,12,61,21,Abstract_Concrete_6tasks_simseq_2seq_listtask_switchAB_fMRI,822030,12453,54132,4,33,153,B5,vest,2,2@,4611.9855943,4941.9969359,330.011341599999,0,0
1509,7&,1,32,41,51,12,61,21,Abstract_Concrete_6tasks_simseq_2seq_listtask_switchAB_fMRI,822030,12453,54132,4,34,154,A5,glasses,3,7&,4611.9855943,4951.9973638,340.0117695,0,0
1959,2@,1,31,42,51,12,61,22,Abstract_Concrete_6tasks_simseq_2seq_listtask_switchAB_fMRI,822030,12453,54132,4,35,155,B5,vest,2,2@,4611.9855943,4960.9994967,349.0139024,0,0
2950,2@,1,31,42,52,11,61,22,Abstract_Concrete_6tasks_simseq_2seq_listtask_switchAB_fMRI,822030,12453,54132,4,36,156,A2,vest,2,2@,4611.9855943,4969.9968336,358.0112393,0,0
1371,3#,1,32,41,51,12,62,21,Abstract_Concrete_6tasks_simseq_2seq_listtask_switchAB_fMRI,822030,12453,54132,4,37,157,B1,tools,6,3#,4611.9855943,4979.9972921,368.0116978,0,0
2016,7&,1,31,42,51,12,61,21,Abstract_Concrete_6tasks_simseq_2seq_listtask_switchAB_fMRI,822030,12453,54132,4,38,158,A5,glasses,3,7&,4611.9855943,4988.9991389,377.013544599999,0,0
2139,9(,1,32,41,52,12,61,22,Abstract_Concrete_6tasks_simseq_2seq_listtask_switchAB_fMRI,822030,12453,54132,4,39,159,B2,weapon,5,9(,4611.9855943,4998.9978539,387.0122596,0,0
3035,4$,1,32,42,52,11,61,21,Abstract_Concrete_6tasks_simseq_2seq_listtask_switchAB_fMRI,822030,12453,54132,4,40,160,A1,helmet,1,4$,4611.9855943,5008.9971522,397.011557899999,0,0
1856,4$,1,31,41,52,12,62,22,Abstract_Concrete_6tasks_simseq_2seq_listtask_switchAB_fMRI,822030,12453,54132,5,1,161,B3,helmet,1,4$,5063.399217,5071.407145325,8.00792832499974,0,0
3090,2@,1,32,41,52,12,61,21,Abstract_Concrete_6tasks_simseq_2seq_listtask_switchAB_fMRI,822030,12453,54132,5,2,162,A2,vest,2,2@,5063.399217,5080.40689977228,17.0076827722787,0,0
1564,7&,1,31,41,52,12,62,21,Abstract_Concrete_6tasks_simseq_2seq_listtask_switchAB_fMRI,822030,12453,54132,5,3,163,B4,glasses,3,7&,5063.399217,5091.41252293754,28.0133059375421,0,0
1491,9(,1,32,41,52,12,61,22,Abstract_Concrete_6tasks_simseq_2seq_listtask_switchAB_fMRI,822030,12453,54132,5,4,164,A3,weapon,5,9(,5063.399217,5100.40664503793,37.0074280379249,0,0
2189,9(,1,31,42,52,11,62,21,Abstract_Concrete_6tasks_simseq_2seq_listtask_switchAB_fMRI,822030,12453,54132,5,5,165,B2,weapon,5,9(,5063.399217,5109.4104934,46.0112763999996,0,0
1355,7&,1,31,41,52,11,62,22,Abstract_Concrete_6tasks_simseq_2seq_listtask_switchAB_fMRI,822030,12453,54132,5,6,166,A5,glasses,3,7&,5063.399217,5119.4126523,56.0134353000003,0,0
2332,2@,1,31,42,52,12,61,21,Abstract_Concrete_6tasks_simseq_2seq_listtask_switchAB_fMRI,822030,12453,54132,5,7,167,B5,vest,2,2@,5063.399217,5128.411486,65.0122689999998,0,0
2900,3#,0,31,42,51,11,62,21,Abstract_Concrete_6tasks_simseq_2seq_listtask_switchAB_fMRI,822030,12453,54132,5,8,168,A5,glasses,3,7&,5063.399217,5138.413259,75.0140419999998,5141.330124,77.9309069999999
4357,9(,1,32,41,52,11,61,22,Abstract_Concrete_6tasks_simseq_2seq_listtask_switchAB_fMRI,822030,12453,54132,5,9,169,B2,weapon,5,9(,5063.399217,5148.4108362,85.0116191999996,0,0
2429,3#,1,32,42,52,11,62,22,Abstract_Concrete_6tasks_simseq_2seq_listtask_switchAB_fMRI,822030,12453,54132,5,10,170,A4,tools,6,3#,5063.399217,5160.4113849,97.0121678999994,0,0
1321,3#,1,31,42,51,12,62,22,Abstract_Concrete_6tasks_simseq_2seq_listtask_switchAB_fMRI,822030,12453,54132,5,11,171,B1,tools,6,3#,5063.399217,5170.4127177,107.0135007,0,0
2160,9(,1,31,42,52,11,61,22,Abstract_Concrete_6tasks_simseq_2seq_listtask_switchAB_fMRI,822030,12453,54132,5,12,172,A3,weapon,5,9(,5063.399217,5179.4121534,116.012936399999,0,0
2066,9(,1,31,42,52,12,61,21,Abstract_Concrete_6tasks_simseq_2seq_listtask_switchAB_fMRI,822030,12453,54132,5,13,173,B2,weapon,5,9(,5063.399217,5189.4117425,126.0125255,0,0
3464,2@,1,32,42,51,11,62,21,Abstract_Concrete_6tasks_simseq_2seq_listtask_switchAB_fMRI,822030,12453,54132,5,14,174,A2,vest,2,2@,5063.399217,5199.4138782,136.0146612,0,0
3281,2@,1,31,42,52,11,61,22,Abstract_Concrete_6tasks_simseq_2seq_listtask_switchAB_fMRI,822030,12453,54132,5,15,175,B5,vest,2,2@,5063.399217,5210.4134887,147.0142717,0,0
1198,7&,1,32,42,51,12,62,22,Abstract_Concrete_6tasks_simseq_2seq_listtask_switchAB_fMRI,822030,12453,54132,5,16,176,A5,glasses,3,7&,5063.399217,5221.4113725,158.0121555,0,0
1589,7&,1,32,42,52,11,62,21,Abstract_Concrete_6tasks_simseq_2seq_listtask_switchAB_fMRI,822030,12453,54132,5,17,177,B4,glasses,3,7&,5063.399217,5230.4117953,167.0125783,0,0
6019,3#,1,32,41,51,12,61,22,Abstract_Concrete_6tasks_simseq_2seq_listtask_switchAB_fMRI,822030,12453,54132,5,18,178,A4,tools,6,3#,5063.399217,5239.4115435,176.0123265,0,0
1441,3#,1,31,41,51,12,61,21,Abstract_Concrete_6tasks_simseq_2seq_listtask_switchAB_fMRI,822030,12453,54132,5,19,179,B1,tools,6,3#,5063.399217,5253.4111325,190.0119155,0,0
1632,9(,1,31,41,51,12,62,22,Abstract_Concrete_6tasks_simseq_2seq_listtask_switchAB_fMRI,822030,12453,54132,5,20,180,A3,weapon,5,9(,5063.399217,5262.4117136,199.0124966,0,0
2849,2@,1,32,41,52,11,62,22,Abstract_Concrete_6tasks_simseq_2seq_listtask_switchAB_fMRI,822030,12453,54132,5,21,181,B5,vest,2,2@,5063.399217,5271.4124266,208.0132096,0,0
1923,3#,1,32,41,52,11,61,22,Abstract_Concrete_6tasks_simseq_2seq_listtask_switchAB_fMRI,822030,12453,54132,5,22,182,A4,tools,6,3#,5063.399217,5281.411089,218.011872,0,0
1159,3#,1,31,42,52,11,61,22,Abstract_Concrete_6tasks_simseq_2seq_listtask_switchAB_fMRI,822030,12453,54132,5,23,183,B1,tools,6,3#,5063.399217,5290.4104838,227.0112668,0,0
1413,7&,1,32,42,52,11,62,21,Abstract_Concrete_6tasks_simseq_2seq_listtask_switchAB_fMRI,822030,12453,54132,5,24,184,A5,glasses,3,7&,5063.399217,5299.4110609,236.0118439,0,0
2973,4$,1,32,42,51,11,62,21,Abstract_Concrete_6tasks_simseq_2seq_listtask_switchAB_fMRI,822030,12453,54132,5,25,185,B3,helmet,1,4$,5063.399217,5308.412087,245.01287,0,0
2363,4$,1,32,41,52,11,62,22,Abstract_Concrete_6tasks_simseq_2seq_listtask_switchAB_fMRI,822030,12453,54132,5,26,186,A1,helmet,1,4$,5063.399217,5318.4118125,255.0125955,0,0
1156,7&,1,31,41,51,12,62,21,Abstract_Concrete_6tasks_simseq_2seq_listtask_switchAB_fMRI,822030,12453,54132,5,27,187,B4,glasses,3,7&,5063.399217,5328.4101739,265.0109569,0,0
1365,9(,1,31,42,51,11,62,21,Abstract_Concrete_6tasks_simseq_2seq_listtask_switchAB_fMRI,822030,12453,54132,5,28,188,A3,weapon,5,9(,5063.399217,5337.4113,274.012083,0,0
2428,4$,1,31,42,51,11,62,21,Abstract_Concrete_6tasks_simseq_2seq_listtask_switchAB_fMRI,822030,12453,54132,5,29,189,B3,helmet,1,4$,5063.399217,5346.4121441,283.0129271,0,0
2742,4$,1,31,42,52,11,62,21,Abstract_Concrete_6tasks_simseq_2seq_listtask_switchAB_fMRI,822030,12453,54132,5,30,190,A1,helmet,1,4$,5063.399217,5356.4126279,293.0134109,0,0
2258,2@,1,32,42,52,12,61,22,Abstract_Concrete_6tasks_simseq_2seq_listtask_switchAB_fMRI,822030,12453,54132,5,31,191,B5,vest,2,2@,5063.399217,5366.410619,303.011402,0,0
2639,4$,1,32,42,52,12,62,21,Abstract_Concrete_6tasks_simseq_2seq_listtask_switchAB_fMRI,822030,12453,54132,5,32,192,A1,helmet,1,4$,5063.399217,5376.4114346,313.0122176,0,0
1603,7&,1,31,42,52,12,62,21,Abstract_Concrete_6tasks_simseq_2seq_listtask_switchAB_fMRI,822030,12453,54132,5,33,193,B4,glasses,3,7&,5063.399217,5386.4098953,323.0106783,0,0
2987,3#,1,32,42,52,11,61,21,Abstract_Concrete_6tasks_simseq_2seq_listtask_switchAB_fMRI,822030,12453,54132,5,34,194,A4,tools,6,3#,5063.399217,5395.4108617,332.0116447,0,0
1381,4$,1,32,41,52,12,61,21,Abstract_Concrete_6tasks_simseq_2seq_listtask_switchAB_fMRI,822030,12453,54132,5,35,195,B3,helmet,1,4$,5063.399217,5406.4130587,343.0138417,0,0
2280,4$,1,32,42,52,12,62,21,Abstract_Concrete_6tasks_simseq_2seq_listtask_switchAB_fMRI,822030,12453,54132,5,36,196,A1,helmet,1,4$,5063.399217,5415.4137215,352.0145045,0,0
1496,3#,1,32,42,51,12,61,21,Abstract_Concrete_6tasks_simseq_2seq_listtask_switchAB_fMRI,822030,12453,54132,5,37,197,B1,tools,6,3#,5063.399217,5425.4112182,362.0120012,0,0
3709,2@,1,32,41,52,11,61,21,Abstract_Concrete_6tasks_simseq_2seq_listtask_switchAB_fMRI,822030,12453,54132,5,38,198,A2,vest,2,2@,5063.399217,5434.4107206,371.0115036,0,0
4312,9(,1,31,42,52,11,61,21,Abstract_Concrete_6tasks_simseq_2seq_listtask_switchAB_fMRI,822030,12453,54132,5,39,199,B2,weapon,5,9(,5063.399217,5445.4115488,382.0123318,0,0
2126,2@,1,31,41,52,11,61,21,Abstract_Concrete_6tasks_simseq_2seq_listtask_switchAB_fMRI,822030,12453,54132,5,40,200,A2,vest,2,2@,5063.399217,5457.4122622,394.0130452,0,0
1407,7&,1,32,42,51,11,61,22,Abstract_Concrete_6tasks_simseq_2seq_listtask_switchAB_fMRI,822030,12453,54132,6,1,201,A5,glasses,3,7&,5510.2467649,5518.257485,8.01072010000007,0,0
1608,4$,1,32,41,51,12,62,21,Abstract_Concrete_6tasks_simseq_2seq_listtask_switchAB_fMRI,822030,12453,54132,6,2,202,B3,helmet,1,4$,5510.2467649,5527.2570892,17.0103243000003,0,0
2820,4$,1,31,41,52,12,62,21,Abstract_Concrete_6tasks_simseq_2seq_listtask_switchAB_fMRI,822030,12453,54132,6,3,203,A1,helmet,1,4$,5510.2467649,5536.260506,26.0137410999996,0,0
1331,7&,1,32,42,51,11,62,22,Abstract_Concrete_6tasks_simseq_2seq_listtask_switchAB_fMRI,822030,12453,54132,6,4,204,B4,glasses,3,7&,5510.2467649,5546.2586556,36.0118906999996,0,0
1912,4$,1,32,41,52,12,62,21,Abstract_Concrete_6tasks_simseq_2seq_listtask_switchAB_fMRI,822030,12453,54132,6,5,205,A1,helmet,1,4$,5510.2467649,5555.2583213,45.0115563999998,0,0
3397,9(,1,32,41,51,12,61,22,Abstract_Concrete_6tasks_simseq_2seq_listtask_switchAB_fMRI,822030,12453,54132,6,6,206,B2,weapon,5,9(,5510.2467649,5564.2585325,54.0117676,0,0
2507,3#,1,32,42,51,12,61,21,Abstract_Concrete_6tasks_simseq_2seq_listtask_switchAB_fMRI,822030,12453,54132,6,7,207,A4,tools,6,3#,5510.2467649,5575.2589837,65.0122187999996,0,0
1759,4$,1,31,41,51,12,62,21,Abstract_Concrete_6tasks_simseq_2seq_listtask_switchAB_fMRI,822030,12453,54132,6,8,208,B3,helmet,1,4$,5510.2467649,5585.2599942,75.0132292999997,0,0
1109,3#,1,32,42,52,12,62,22,Abstract_Concrete_6tasks_simseq_2seq_listtask_switchAB_fMRI,822030,12453,54132,6,9,209,A4,tools,6,3#,5510.2467649,5594.2584251,84.0116601999998,0,0
1350,3#,1,32,42,51,11,61,22,Abstract_Concrete_6tasks_simseq_2seq_listtask_switchAB_fMRI,822030,12453,54132,6,10,210,B1,tools,6,3#,5510.2467649,5603.2605981,93.0138331999997,0,0
1899,7&,1,32,41,52,11,62,22,Abstract_Concrete_6tasks_simseq_2seq_listtask_switchAB_fMRI,822030,12453,54132,6,11,211,A5,glasses,3,7&,5510.2467649,5612.259076,102.0123111,0,0
1185,7&,1,31,41,51,11,61,21,Abstract_Concrete_6tasks_simseq_2seq_listtask_switchAB_fMRI,822030,12453,54132,6,12,212,B4,glasses,3,7&,5510.2467649,5621.2593844,111.0126195,0,0
2333,7&,1,32,41,51,12,62,22,Abstract_Concrete_6tasks_simseq_2seq_listtask_switchAB_fMRI,822030,12453,54132,6,13,213,A5,glasses,3,7&,5510.2467649,5630.2609576,120.0141927,0,0
1535,4$,1,31,42,51,12,62,21,Abstract_Concrete_6tasks_simseq_2seq_listtask_switchAB_fMRI,822030,12453,54132,6,14,214,B3,helmet,1,4$,5510.2467649,5640.2608478,130.0140829,0,0
1661,7&,1,32,42,51,11,62,21,Abstract_Concrete_6tasks_simseq_2seq_listtask_switchAB_fMRI,822030,12453,54132,6,15,215,A5,glasses,3,7&,5510.2467649,5649.2589618,139.0121969,0,0
780,7&,1,32,41,52,12,61,21,Abstract_Concrete_6tasks_simseq_2seq_listtask_switchAB_fMRI,822030,12453,54132,6,16,216,B4,glasses,3,7&,5510.2467649,5658.2586807,148.0119158,0,0
1979,4$,1,31,41,52,12,62,22,Abstract_Concrete_6tasks_simseq_2seq_listtask_switchAB_fMRI,822030,12453,54132,6,17,217,A1,helmet,1,4$,5510.2467649,5666.257933,156.0111681,0,0
1473,7&,1,31,41,52,11,61,21,Abstract_Concrete_6tasks_simseq_2seq_listtask_switchAB_fMRI,822030,12453,54132,6,18,218,B4,glasses,3,7&,5510.2467649,5675.2588865,165.0121216,0,0
1158,9(,1,31,42,51,12,62,22,Abstract_Concrete_6tasks_simseq_2seq_listtask_switchAB_fMRI,822030,12453,54132,6,19,219,A3,weapon,5,9(,5510.2467649,5684.2607956,174.0140307,0,0
896,4$,1,31,42,51,12,62,21,Abstract_Concrete_6tasks_simseq_2seq_listtask_switchAB_fMRI,822030,12453,54132,6,20,220,B3,helmet,1,4$,5510.2467649,5693.2613598,183.0145949,0,0
642,9(,1,31,41,51,11,61,21,Abstract_Concrete_6tasks_simseq_2seq_listtask_switchAB_fMRI,822030,12453,54132,6,21,221,A3,weapon,5,9(,5510.2467649,5701.2592687,191.0125038,0,0
1529,9(,1,31,42,51,12,61,21,Abstract_Concrete_6tasks_simseq_2seq_listtask_switchAB_fMRI,822030,12453,54132,6,22,222,B2,weapon,5,9(,5510.2467649,5709.2594699,199.012705,0,0
2460,2@,1,31,41,51,11,61,22,Abstract_Concrete_6tasks_simseq_2seq_listtask_switchAB_fMRI,822030,12453,54132,6,23,223,A2,vest,2,2@,5510.2467649,5718.2600738,208.0133089,0,0
2472,9(,1,32,42,52,12,61,22,Abstract_Concrete_6tasks_simseq_2seq_listtask_switchAB_fMRI,822030,12453,54132,6,24,224,B2,weapon,5,9(,5510.2467649,5728.2594675,218.0127026,0,0
2244,2@,1,31,41,52,11,62,22,Abstract_Concrete_6tasks_simseq_2seq_listtask_switchAB_fMRI,822030,12453,54132,6,25,225,A2,vest,2,2@,5510.2467649,5738.2600767,228.0133118,0,0
1348,3#,1,31,42,52,11,62,22,Abstract_Concrete_6tasks_simseq_2seq_listtask_switchAB_fMRI,822030,12453,54132,6,26,226,B1,tools,6,3#,5510.2467649,5748.2582347,238.0114698,0,0
3284,2@,1,31,41,52,11,62,22,Abstract_Concrete_6tasks_simseq_2seq_listtask_switchAB_fMRI,822030,12453,54132,6,27,227,A2,vest,2,2@,5510.2467649,5757.2596685,247.0129036,0,0
2382,9(,1,31,42,51,11,61,22,Abstract_Concrete_6tasks_simseq_2seq_listtask_switchAB_fMRI,822030,12453,54132,6,28,228,B2,weapon,5,9(,5510.2467649,5768.260308,258.0135431,0,0
1898,4$,1,32,42,51,11,62,22,Abstract_Concrete_6tasks_simseq_2seq_listtask_switchAB_fMRI,822030,12453,54132,6,29,229,A1,helmet,1,4$,5510.2467649,5778.2587588,268.0119939,0,0
2125,2@,1,32,41,51,12,62,22,Abstract_Concrete_6tasks_simseq_2seq_listtask_switchAB_fMRI,822030,12453,54132,6,30,230,B5,vest,2,2@,5510.2467649,5787.2599951,277.0132302,0,0
3125,2@,1,32,41,52,11,61,21,Abstract_Concrete_6tasks_simseq_2seq_listtask_switchAB_fMRI,822030,12453,54132,6,31,231,A2,vest,2,2@,5510.2467649,5797.260116,287.0133511,0,0
2129,2@,1,31,41,51,11,61,22,Abstract_Concrete_6tasks_simseq_2seq_listtask_switchAB_fMRI,822030,12453,54132,6,32,232,B5,vest,2,2@,5510.2467649,5808.258401,298.0116361,0,0
3454,3#,1,31,41,52,12,62,21,Abstract_Concrete_6tasks_simseq_2seq_listtask_switchAB_fMRI,822030,12453,54132,6,33,233,A4,tools,6,3#,5510.2467649,5818.2589369,308.012172,0,0
2213,3#,1,32,42,52,11,61,22,Abstract_Concrete_6tasks_simseq_2seq_listtask_switchAB_fMRI,822030,12453,54132,6,34,234,B1,tools,6,3#,5510.2467649,5829.2599024,319.0131375,0,0
4538,3#,1,32,42,52,12,62,22,Abstract_Concrete_6tasks_simseq_2seq_listtask_switchAB_fMRI,822030,12453,54132,6,35,235,A4,tools,6,3#,5510.2467649,5839.2591267,329.0123618,0,0
4676,2@,1,31,42,51,11,61,22,Abstract_Concrete_6tasks_simseq_2seq_listtask_switchAB_fMRI,822030,12453,54132,6,36,236,B5,vest,2,2@,5510.2467649,5851.2602882,341.0135233,0,0
2429,9(,1,32,42,52,11,62,21,Abstract_Concrete_6tasks_simseq_2seq_listtask_switchAB_fMRI,822030,12453,54132,6,37,237,A3,weapon,5,9(,5510.2467649,5863.2575535,353.0107886,0,0
1985,2@,1,32,42,52,11,62,21,Abstract_Concrete_6tasks_simseq_2seq_listtask_switchAB_fMRI,822030,12453,54132,6,38,238,B5,vest,2,2@,5510.2467649,5873.2596047,363.0128398,0,0
1307,9(,1,32,42,51,11,61,21,Abstract_Concrete_6tasks_simseq_2seq_listtask_switchAB_fMRI,822030,12453,54132,6,39,239,A3,weapon,5,9(,5510.2467649,5882.2584804,372.0117155,0,0
1566,3#,1,31,42,51,12,62,21,Abstract_Concrete_6tasks_simseq_2seq_listtask_switchAB_fMRI,822030,12453,54132,6,40,240,B1,tools,6,3#,5510.2467649,5891.2588039,381.012039,0,0
