rt1,resp1,correct1,features_1,features_2,features_3,features_4,features_5,features_6,ExpName,subNo,seqA,seqB,block,trial,trialnum,cuetype,task,subtaskcode,corr_resp1,onsetTime_s,onsetTime_cue,onset_cue,onsetTime_cue_fb,onset_cue_fb
8571,3#,1,11,51,61,21,32,41,Abstract_Concrete_6tasks_simseq_2seq_listtask_switchAB_fMRI,840914,42531,35412,1,1,1,A4,glasses,3,3#,3333.7554888,3341.7656835,8.01019469999983,0,0
3280,8*,1,12,51,62,22,32,42,Abstract_Concrete_6tasks_simseq_2seq_listtask_switchAB_fMRI,840914,42531,35412,1,2,2,B3,weapon,5,8*,3333.7554888,3357.7655109,24.0100221000002,0,0
2376,4$,1,11,52,61,22,32,42,Abstract_Concrete_6tasks_simseq_2seq_listtask_switchAB_fMRI,840914,42531,35412,1,3,3,A2,vest,2,4$,3333.7554888,3368.7682204,35.0127315999998,0,0
2994,9(,1,11,52,61,22,32,41,Abstract_Concrete_6tasks_simseq_2seq_listtask_switchAB_fMRI,840914,42531,35412,1,4,4,B2,tools,6,9(,3333.7554888,3378.7672911,45.0118023,0,0
2250,4$,1,11,52,61,22,31,42,Abstract_Concrete_6tasks_simseq_2seq_listtask_switchAB_fMRI,840914,42531,35412,1,5,5,A2,vest,2,4$,3333.7554888,3389.7685422,56.0130534,0,0
3314,7&,1,11,51,61,21,31,42,Abstract_Concrete_6tasks_simseq_2seq_listtask_switchAB_fMRI,840914,42531,35412,1,6,6,B4,helmet,1,7&,3333.7554888,3399.7677549,66.0122661,0,0
3556,9(,1,11,51,62,22,31,41,Abstract_Concrete_6tasks_simseq_2seq_listtask_switchAB_fMRI,840914,42531,35412,1,7,7,A3,tools,6,9(,3333.7554888,3410.767442,77.0119531999999,0,0
3491,4$,1,12,51,62,22,32,42,Abstract_Concrete_6tasks_simseq_2seq_listtask_switchAB_fMRI,840914,42531,35412,1,8,8,B5,vest,2,4$,3333.7554888,3421.7695752,88.0140864,0,0
4521,7&,1,11,51,61,22,31,41,Abstract_Concrete_6tasks_simseq_2seq_listtask_switchAB_fMRI,840914,42531,35412,1,9,9,A5,helmet,1,7&,3333.7554888,3432.7664618,99.0109729999999,0,0
4181,7&,1,12,52,62,21,31,41,Abstract_Concrete_6tasks_simseq_2seq_listtask_switchAB_fMRI,840914,42531,35412,1,10,10,B4,helmet,1,7&,3333.7554888,3444.7672195,111.0117307,0,0
2658,9(,1,12,52,62,22,32,42,Abstract_Concrete_6tasks_simseq_2seq_listtask_switchAB_fMRI,840914,42531,35412,1,11,11,A3,tools,6,9(,3333.7554888,3456.7680783,123.0125895,0,0
2769,7&,1,12,51,61,22,31,41,Abstract_Concrete_6tasks_simseq_2seq_listtask_switchAB_fMRI,840914,42531,35412,1,12,12,B4,helmet,1,7&,3333.7554888,3466.768565,133.0130762,0,0
1810,4$,1,12,52,62,22,32,42,Abstract_Concrete_6tasks_simseq_2seq_listtask_switchAB_fMRI,840914,42531,35412,1,13,13,A2,vest,2,4$,3333.7554888,3476.7674707,143.0119819,0,0
3716,4$,1,11,52,61,21,31,42,Abstract_Concrete_6tasks_simseq_2seq_listtask_switchAB_fMRI,840914,42531,35412,1,14,14,B5,vest,2,4$,3333.7554888,3485.7678002,152.0123114,0,0
3118,7&,1,11,52,62,22,32,41,Abstract_Concrete_6tasks_simseq_2seq_listtask_switchAB_fMRI,840914,42531,35412,1,15,15,A5,helmet,1,7&,3333.7554888,3496.7673598,163.011871,0,0
3002,9(,1,12,52,61,21,32,41,Abstract_Concrete_6tasks_simseq_2seq_listtask_switchAB_fMRI,840914,42531,35412,1,16,16,B2,tools,6,9(,3333.7554888,3507.7689811,174.0134923,0,0
3821,7&,1,12,51,62,21,32,42,Abstract_Concrete_6tasks_simseq_2seq_listtask_switchAB_fMRI,840914,42531,35412,1,17,17,A5,helmet,1,7&,3333.7554888,3518.7680796,185.0125908,0,0
2498,3#,1,11,52,61,21,32,41,Abstract_Concrete_6tasks_simseq_2seq_listtask_switchAB_fMRI,840914,42531,35412,1,18,18,B1,glasses,3,3#,3333.7554888,3529.7674012,196.0119124,0,0
2317,8*,1,11,52,62,21,32,42,Abstract_Concrete_6tasks_simseq_2seq_listtask_switchAB_fMRI,840914,42531,35412,1,19,19,A1,weapon,5,8*,3333.7554888,3539.7675126,206.0120238,0,0
2717,4$,1,11,51,62,21,31,41,Abstract_Concrete_6tasks_simseq_2seq_listtask_switchAB_fMRI,840914,42531,35412,1,20,20,B5,vest,2,4$,3333.7554888,3549.7693199,216.0138311,0,0
2730,7&,0,12,51,61,21,32,42,Abstract_Concrete_6tasks_simseq_2seq_listtask_switchAB_fMRI,840914,42531,35412,1,21,21,A4,glasses,3,3#,3333.7554888,3559.7675855,226.0120967,3562.5122642,228.7567754
2686,3#,1,12,52,61,21,31,42,Abstract_Concrete_6tasks_simseq_2seq_listtask_switchAB_fMRI,840914,42531,35412,1,22,22,B1,glasses,3,3#,3333.7554888,3569.7653256,236.0098368,0,0
3280,9(,1,12,52,61,21,31,41,Abstract_Concrete_6tasks_simseq_2seq_listtask_switchAB_fMRI,840914,42531,35412,1,23,23,A3,tools,6,9(,3333.7554888,3579.7666657,246.0111769,0,0
2716,8*,1,12,51,61,21,32,41,Abstract_Concrete_6tasks_simseq_2seq_listtask_switchAB_fMRI,840914,42531,35412,1,24,24,B3,weapon,5,8*,3333.7554888,3590.7691092,257.0136204,0,0
2743,3#,1,11,52,62,22,31,41,Abstract_Concrete_6tasks_simseq_2seq_listtask_switchAB_fMRI,840914,42531,35412,1,25,25,A4,glasses,3,3#,3333.7554888,3600.7668378,267.011349,0,0
2510,4$,1,11,52,62,22,31,41,Abstract_Concrete_6tasks_simseq_2seq_listtask_switchAB_fMRI,840914,42531,35412,1,26,26,B5,vest,2,4$,3333.7554888,3610.7673377,277.0118489,0,0
2285,8*,1,12,51,61,21,31,41,Abstract_Concrete_6tasks_simseq_2seq_listtask_switchAB_fMRI,840914,42531,35412,1,27,27,A1,weapon,5,8*,3333.7554888,3620.7672231,287.0117343,0,0
3315,9(,1,12,52,61,21,32,42,Abstract_Concrete_6tasks_simseq_2seq_listtask_switchAB_fMRI,840914,42531,35412,1,28,28,B2,tools,6,9(,3333.7554888,3630.7670749,297.0115861,0,0
2413,3#,1,11,51,62,21,32,42,Abstract_Concrete_6tasks_simseq_2seq_listtask_switchAB_fMRI,840914,42531,35412,1,29,29,A4,glasses,3,3#,3333.7554888,3641.7660841,308.0105953,0,0
1714,3#,1,11,52,61,22,32,41,Abstract_Concrete_6tasks_simseq_2seq_listtask_switchAB_fMRI,840914,42531,35412,1,30,30,B1,glasses,3,3#,3333.7554888,3651.768641,318.0131522,0,0
2794,8*,1,12,52,62,21,32,42,Abstract_Concrete_6tasks_simseq_2seq_listtask_switchAB_fMRI,840914,42531,35412,1,31,31,A1,weapon,5,8*,3333.7554888,3660.7668592,327.0113704,0,0
1953,3#,1,11,52,62,22,31,42,Abstract_Concrete_6tasks_simseq_2seq_listtask_switchAB_fMRI,840914,42531,35412,1,32,32,B1,glasses,3,3#,3333.7554888,3670.7667367,337.0112479,0,0
3261,8*,1,11,52,61,22,31,42,Abstract_Concrete_6tasks_simseq_2seq_listtask_switchAB_fMRI,840914,42531,35412,1,33,33,A1,weapon,5,8*,3333.7554888,3679.7682134,346.0127246,0,0
2556,8*,1,12,51,62,21,31,42,Abstract_Concrete_6tasks_simseq_2seq_listtask_switchAB_fMRI,840914,42531,35412,1,34,34,B3,weapon,5,8*,3333.7554888,3690.7680997,357.0126109,0,0
3657,9(,1,12,52,61,21,31,41,Abstract_Concrete_6tasks_simseq_2seq_listtask_switchAB_fMRI,840914,42531,35412,1,35,35,A3,tools,6,9(,3333.7554888,3700.7686751,367.0131863,0,0
2556,9(,1,11,51,61,22,31,42,Abstract_Concrete_6tasks_simseq_2seq_listtask_switchAB_fMRI,840914,42531,35412,1,36,36,B2,tools,6,9(,3333.7554888,3711.7660687,378.0105799,0,0
3076,7&,1,11,52,62,21,32,42,Abstract_Concrete_6tasks_simseq_2seq_listtask_switchAB_fMRI,840914,42531,35412,1,37,37,A5,helmet,1,7&,3333.7554888,3721.767315,388.0118262,0,0
3522,8*,1,12,52,61,21,31,42,Abstract_Concrete_6tasks_simseq_2seq_listtask_switchAB_fMRI,840914,42531,35412,1,38,38,B3,weapon,5,8*,3333.7554888,3732.7664652,399.0109764,0,0
2007,4$,1,11,52,61,22,31,42,Abstract_Concrete_6tasks_simseq_2seq_listtask_switchAB_fMRI,840914,42531,35412,1,39,39,A2,vest,2,4$,3333.7554888,3743.7670209,410.0115321,0,0
3935,3#,0,12,51,62,21,32,42,Abstract_Concrete_6tasks_simseq_2seq_listtask_switchAB_fMRI,840914,42531,35412,1,40,40,B4,helmet,1,7&,3333.7554888,3753.7689657,420.0134769,3757.7156581,423.9601693
2371,8*,1,12,52,61,22,31,42,Abstract_Concrete_6tasks_simseq_2seq_listtask_switchAB_fMRI,840914,42531,35412,2,1,41,A1,weapon,5,8*,3842.2844708,3850.294768,8.01029720000042,0,0
3055,8*,1,12,52,62,22,32,41,Abstract_Concrete_6tasks_simseq_2seq_listtask_switchAB_fMRI,840914,42531,35412,2,2,42,B3,weapon,5,8*,3842.2844708,3860.2963154,18.0118446000001,0,0
2434,9(,1,12,51,61,21,32,41,Abstract_Concrete_6tasks_simseq_2seq_listtask_switchAB_fMRI,840914,42531,35412,2,3,43,A3,tools,6,9(,3842.2844708,3871.2959299,29.0114591000001,0,0
4675,7&,1,11,51,61,22,32,42,Abstract_Concrete_6tasks_simseq_2seq_listtask_switchAB_fMRI,840914,42531,35412,2,4,44,B4,helmet,1,7&,3842.2844708,3881.293488,39.0090172,0,0
2084,9(,1,12,52,62,21,31,41,Abstract_Concrete_6tasks_simseq_2seq_listtask_switchAB_fMRI,840914,42531,35412,2,5,45,A3,tools,6,9(,3842.2844708,3893.298327,51.0138562000002,0,0
2502,9(,1,12,52,62,21,31,42,Abstract_Concrete_6tasks_simseq_2seq_listtask_switchAB_fMRI,840914,42531,35412,2,6,46,B2,tools,6,9(,3842.2844708,3903.2972768,61.0128060000002,0,0
3544,7&,1,12,52,62,22,32,41,Abstract_Concrete_6tasks_simseq_2seq_listtask_switchAB_fMRI,840914,42531,35412,2,7,47,A5,helmet,1,7&,3842.2844708,3913.2967691,71.0122983000001,0,0
2327,3#,1,11,52,61,21,31,41,Abstract_Concrete_6tasks_simseq_2seq_listtask_switchAB_fMRI,840914,42531,35412,2,8,48,B1,glasses,3,3#,3842.2844708,3924.2967139,82.0122431000004,0,0
2323,4$,1,11,51,62,21,32,41,Abstract_Concrete_6tasks_simseq_2seq_listtask_switchAB_fMRI,840914,42531,35412,2,9,49,A2,vest,2,4$,3842.2844708,3934.2966273,92.0121565000004,0,0
2159,4$,1,11,51,62,22,31,41,Abstract_Concrete_6tasks_simseq_2seq_listtask_switchAB_fMRI,840914,42531,35412,2,10,50,B5,vest,2,4$,3842.2844708,3944.2965589,102.0120881,0,0
2311,7&,1,12,51,61,21,32,42,Abstract_Concrete_6tasks_simseq_2seq_listtask_switchAB_fMRI,840914,42531,35412,2,11,51,A5,helmet,1,7&,3842.2844708,3954.2986549,112.0141841,0,0
2732,9(,1,11,52,61,21,31,42,Abstract_Concrete_6tasks_simseq_2seq_listtask_switchAB_fMRI,840914,42531,35412,2,12,52,B2,tools,6,9(,3842.2844708,3964.2995406,122.0150698,0,0
3187,8*,1,12,52,62,22,31,42,Abstract_Concrete_6tasks_simseq_2seq_listtask_switchAB_fMRI,840914,42531,35412,2,13,53,A1,weapon,5,8*,3842.2844708,3974.2965495,132.0120787,0,0
2433,3#,1,11,52,62,22,32,41,Abstract_Concrete_6tasks_simseq_2seq_listtask_switchAB_fMRI,840914,42531,35412,2,14,54,B1,glasses,3,3#,3842.2844708,3985.2976706,143.0131998,0,0
2601,3#,1,11,52,62,21,31,41,Abstract_Concrete_6tasks_simseq_2seq_listtask_switchAB_fMRI,840914,42531,35412,2,15,55,A4,glasses,3,3#,3842.2844708,3995.2959056,153.0114348,0,0
889,7&,1,11,51,61,22,32,42,Abstract_Concrete_6tasks_simseq_2seq_listtask_switchAB_fMRI,840914,42531,35412,2,16,56,B4,helmet,1,7&,3842.2844708,4005.29547,163.0109992,0,0
1592,4$,1,11,51,62,22,31,42,Abstract_Concrete_6tasks_simseq_2seq_listtask_switchAB_fMRI,840914,42531,35412,2,17,57,A2,vest,2,4$,3842.2844708,4013.2963952,171.0119244,0,0
1214,9(,1,11,52,62,21,32,42,Abstract_Concrete_6tasks_simseq_2seq_listtask_switchAB_fMRI,840914,42531,35412,2,18,58,B2,tools,6,9(,3842.2844708,4022.2968934,180.0124226,0,0
3759,8*,1,11,51,62,21,32,42,Abstract_Concrete_6tasks_simseq_2seq_listtask_switchAB_fMRI,840914,42531,35412,2,19,59,A1,weapon,5,8*,3842.2844708,4031.2985133,189.0140425,0,0
2694,4$,1,11,52,61,22,32,42,Abstract_Concrete_6tasks_simseq_2seq_listtask_switchAB_fMRI,840914,42531,35412,2,20,60,B5,vest,2,4$,3842.2844708,4042.2968303,200.0123595,0,0
3994,3#,1,12,52,61,21,31,42,Abstract_Concrete_6tasks_simseq_2seq_listtask_switchAB_fMRI,840914,42531,35412,2,21,61,A4,glasses,3,3#,3842.2844708,4052.2956547,210.0111839,0,0
3381,7&,1,11,52,61,21,31,41,Abstract_Concrete_6tasks_simseq_2seq_listtask_switchAB_fMRI,840914,42531,35412,2,22,62,B4,helmet,1,7&,3842.2844708,4064.2969795,222.0125087,0,0
2155,9(,1,11,52,61,21,32,42,Abstract_Concrete_6tasks_simseq_2seq_listtask_switchAB_fMRI,840914,42531,35412,2,23,63,A3,tools,6,9(,3842.2844708,4075.2965371,233.0120663,0,0
2926,9(,1,12,51,61,21,31,42,Abstract_Concrete_6tasks_simseq_2seq_listtask_switchAB_fMRI,840914,42531,35412,2,24,64,B2,tools,6,9(,3842.2844708,4085.2960731,243.0116023,0,0
3713,7&,1,12,52,62,21,31,42,Abstract_Concrete_6tasks_simseq_2seq_listtask_switchAB_fMRI,840914,42531,35412,2,25,65,A5,helmet,1,7&,3842.2844708,4095.2949629,253.0104921,0,0
2627,8*,1,11,51,62,21,32,42,Abstract_Concrete_6tasks_simseq_2seq_listtask_switchAB_fMRI,840914,42531,35412,2,26,66,B3,weapon,5,8*,3842.2844708,4106.2952088,264.010738,0,0
3373,3#,1,12,51,62,22,32,41,Abstract_Concrete_6tasks_simseq_2seq_listtask_switchAB_fMRI,840914,42531,35412,2,27,67,A4,glasses,3,3#,3842.2844708,4116.2974068,274.012936000001,0,0
2152,4$,1,12,52,62,21,31,41,Abstract_Concrete_6tasks_simseq_2seq_listtask_switchAB_fMRI,840914,42531,35412,2,28,68,B5,vest,2,4$,3842.2844708,4127.2952356,285.0107648,0,0
1895,4$,1,12,51,62,22,31,42,Abstract_Concrete_6tasks_simseq_2seq_listtask_switchAB_fMRI,840914,42531,35412,2,29,69,A2,vest,2,4$,3842.2844708,4137.2956778,295.011207,0,0
2545,7&,0,12,52,62,22,32,41,Abstract_Concrete_6tasks_simseq_2seq_listtask_switchAB_fMRI,840914,42531,35412,2,30,70,B3,weapon,5,8*,3842.2844708,4146.2956154,304.011144600001,4148.8574007,306.5729299
2923,9(,1,11,52,62,22,31,41,Abstract_Concrete_6tasks_simseq_2seq_listtask_switchAB_fMRI,840914,42531,35412,2,31,71,A3,tools,6,9(,3842.2844708,4156.2946904,314.0102196,0,0
2470,8*,1,11,52,62,22,32,41,Abstract_Concrete_6tasks_simseq_2seq_listtask_switchAB_fMRI,840914,42531,35412,2,32,72,B3,weapon,5,8*,3842.2844708,4166.2955103,324.011039500001,0,0
3812,8*,1,12,51,62,22,31,42,Abstract_Concrete_6tasks_simseq_2seq_listtask_switchAB_fMRI,840914,42531,35412,2,33,73,A1,weapon,5,8*,3842.2844708,4176.2964919,334.0120211,0,0
1626,3#,1,12,52,62,22,31,42,Abstract_Concrete_6tasks_simseq_2seq_listtask_switchAB_fMRI,840914,42531,35412,2,34,74,B1,glasses,3,3#,3842.2844708,4187.2950591,345.0105883,0,0
1961,3#,1,11,51,61,21,31,42,Abstract_Concrete_6tasks_simseq_2seq_listtask_switchAB_fMRI,840914,42531,35412,2,35,75,A4,glasses,3,3#,3842.2844708,4196.2936628,354.009192,0,0
1733,4$,1,12,52,62,22,32,42,Abstract_Concrete_6tasks_simseq_2seq_listtask_switchAB_fMRI,840914,42531,35412,2,36,76,B5,vest,2,4$,3842.2844708,4205.2956641,363.0111933,0,0
1738,4$,1,11,51,62,21,32,42,Abstract_Concrete_6tasks_simseq_2seq_listtask_switchAB_fMRI,840914,42531,35412,2,37,77,A2,vest,2,4$,3842.2844708,4214.2955538,372.011083,0,0
3699,7&,1,12,52,61,21,31,41,Abstract_Concrete_6tasks_simseq_2seq_listtask_switchAB_fMRI,840914,42531,35412,2,38,78,B4,helmet,1,7&,3842.2844708,4223.2965679,381.0120971,0,0
2903,7&,1,11,52,62,22,31,42,Abstract_Concrete_6tasks_simseq_2seq_listtask_switchAB_fMRI,840914,42531,35412,2,39,79,A5,helmet,1,7&,3842.2844708,4234.2962091,392.0117383,0,0
1920,3#,1,12,52,62,22,31,42,Abstract_Concrete_6tasks_simseq_2seq_listtask_switchAB_fMRI,840914,42531,35412,2,40,80,B1,glasses,3,3#,3842.2844708,4244.2958047,402.0113339,0,0
2420,9(,1,12,51,61,22,32,42,Abstract_Concrete_6tasks_simseq_2seq_listtask_switchAB_fMRI,840914,42531,35412,3,1,81,A3,tools,6,9(,4319.4673326,4327.4785537,8.0112210999996,0,0
4048,7&,1,12,51,62,21,32,42,Abstract_Concrete_6tasks_simseq_2seq_listtask_switchAB_fMRI,840914,42531,35412,3,2,82,B4,helmet,1,7&,4319.4673326,4337.4772595,18.0099269000002,0,0
1606,4$,1,11,52,62,22,32,42,Abstract_Concrete_6tasks_simseq_2seq_listtask_switchAB_fMRI,840914,42531,35412,3,3,83,A2,vest,2,4$,4319.4673326,4349.4788739,30.0115412999994,0,0
1573,4$,1,12,52,61,21,32,42,Abstract_Concrete_6tasks_simseq_2seq_listtask_switchAB_fMRI,840914,42531,35412,3,4,84,B5,vest,2,4$,4319.4673326,4358.4784787,39.0111460999997,0,0
1624,4$,1,11,52,62,21,32,42,Abstract_Concrete_6tasks_simseq_2seq_listtask_switchAB_fMRI,840914,42531,35412,3,5,85,A2,vest,2,4$,4319.4673326,4367.4805537,48.0132211,0,0
2863,3#,1,12,52,61,22,32,41,Abstract_Concrete_6tasks_simseq_2seq_listtask_switchAB_fMRI,840914,42531,35412,3,6,86,B1,glasses,3,3#,4319.4673326,4376.4796263,57.0122936999996,0,0
2942,3#,1,12,52,62,22,31,41,Abstract_Concrete_6tasks_simseq_2seq_listtask_switchAB_fMRI,840914,42531,35412,3,7,87,A4,glasses,3,3#,4319.4673326,4386.4783261,67.0109935,0,0
2821,8*,1,12,52,62,21,32,42,Abstract_Concrete_6tasks_simseq_2seq_listtask_switchAB_fMRI,840914,42531,35412,3,8,88,B3,weapon,5,8*,4319.4673326,4396.4792176,77.0118849999999,0,0
2172,4$,1,11,52,62,21,31,42,Abstract_Concrete_6tasks_simseq_2seq_listtask_switchAB_fMRI,840914,42531,35412,3,9,89,A2,vest,2,4$,4319.4673326,4406.4791689,87.0118363000001,0,0
2248,9(,1,11,52,61,22,31,42,Abstract_Concrete_6tasks_simseq_2seq_listtask_switchAB_fMRI,840914,42531,35412,3,10,90,B2,tools,6,9(,4319.4673326,4416.4798681,97.0125355,0,0
2060,7&,1,12,52,62,21,31,41,Abstract_Concrete_6tasks_simseq_2seq_listtask_switchAB_fMRI,840914,42531,35412,3,11,91,A5,helmet,1,7&,4319.4673326,4426.4780754,107.0107428,0,0
4079,4$,1,12,51,61,22,31,41,Abstract_Concrete_6tasks_simseq_2seq_listtask_switchAB_fMRI,840914,42531,35412,3,12,92,B5,vest,2,4$,4319.4673326,4436.4794468,117.0121142,0,0
2148,3#,1,12,51,61,22,31,41,Abstract_Concrete_6tasks_simseq_2seq_listtask_switchAB_fMRI,840914,42531,35412,3,13,93,A4,glasses,3,3#,4319.4673326,4448.4798635,129.0125309,0,0
3206,9(,1,11,51,62,21,31,41,Abstract_Concrete_6tasks_simseq_2seq_listtask_switchAB_fMRI,840914,42531,35412,3,14,94,B2,tools,6,9(,4319.4673326,4458.4809445,139.0136119,0,0
2397,9(,1,12,52,62,21,32,41,Abstract_Concrete_6tasks_simseq_2seq_listtask_switchAB_fMRI,840914,42531,35412,3,15,95,A3,tools,6,9(,4319.4673326,4469.4783505,150.011017899999,0,0
2161,7&,1,12,51,62,21,32,42,Abstract_Concrete_6tasks_simseq_2seq_listtask_switchAB_fMRI,840914,42531,35412,3,16,96,B4,helmet,1,7&,4319.4673326,4479.4798966,160.012564,0,0
2052,7&,1,11,51,62,22,31,41,Abstract_Concrete_6tasks_simseq_2seq_listtask_switchAB_fMRI,840914,42531,35412,3,17,97,A5,helmet,1,7&,4319.4673326,4489.4809111,170.0135785,0,0
2030,3#,1,12,52,62,22,32,42,Abstract_Concrete_6tasks_simseq_2seq_listtask_switchAB_fMRI,840914,42531,35412,3,18,98,B1,glasses,3,3#,4319.4673326,4499.4799237,180.0125911,0,0
871,3#,1,11,52,62,22,32,41,Abstract_Concrete_6tasks_simseq_2seq_listtask_switchAB_fMRI,840914,42531,35412,3,19,99,A4,glasses,3,3#,4319.4673326,4509.4799793,190.0126467,0,0
5775,7&,1,11,52,61,21,31,41,Abstract_Concrete_6tasks_simseq_2seq_listtask_switchAB_fMRI,840914,42531,35412,3,20,100,B4,helmet,1,7&,4319.4673326,4517.4781863,198.0108537,0,0
3828,9(,1,11,51,61,21,32,42,Abstract_Concrete_6tasks_simseq_2seq_listtask_switchAB_fMRI,840914,42531,35412,3,21,101,A3,tools,6,9(,4319.4673326,4530.4794708,211.0121382,0,0
2219,9(,1,12,52,61,21,31,42,Abstract_Concrete_6tasks_simseq_2seq_listtask_switchAB_fMRI,840914,42531,35412,3,22,102,B2,tools,6,9(,4319.4673326,4541.4791109,222.0117783,0,0
1325,4$,1,12,51,61,22,31,41,Abstract_Concrete_6tasks_simseq_2seq_listtask_switchAB_fMRI,840914,42531,35412,3,23,103,A2,vest,2,4$,4319.4673326,4551.4801537,232.0128211,0,0
1477,3#,1,11,52,62,22,32,42,Abstract_Concrete_6tasks_simseq_2seq_listtask_switchAB_fMRI,840914,42531,35412,3,24,104,B1,glasses,3,3#,4319.4673326,4560.4810857,241.0137531,0,0
2792,9(,1,11,51,62,21,31,42,Abstract_Concrete_6tasks_simseq_2seq_listtask_switchAB_fMRI,840914,42531,35412,3,25,105,A3,tools,6,9(,4319.4673326,4569.4785886,250.011256,0,0
2043,9(,1,11,52,61,21,32,41,Abstract_Concrete_6tasks_simseq_2seq_listtask_switchAB_fMRI,840914,42531,35412,3,26,106,B2,tools,6,9(,4319.4673326,4579.4796242,260.0122916,0,0
3014,3#,1,11,52,62,21,31,42,Abstract_Concrete_6tasks_simseq_2seq_listtask_switchAB_fMRI,840914,42531,35412,3,27,107,A4,glasses,3,3#,4319.4673326,4589.4798464,270.012513799999,0,0
3816,7&,1,11,52,62,22,31,41,Abstract_Concrete_6tasks_simseq_2seq_listtask_switchAB_fMRI,840914,42531,35412,3,28,108,B4,helmet,1,7&,4319.4673326,4600.4792712,281.0119386,0,0
3343,8*,1,12,51,62,22,32,42,Abstract_Concrete_6tasks_simseq_2seq_listtask_switchAB_fMRI,840914,42531,35412,3,29,109,A1,weapon,5,8*,4319.4673326,4611.4784308,292.0110982,0,0
1996,3#,1,11,51,62,22,31,41,Abstract_Concrete_6tasks_simseq_2seq_listtask_switchAB_fMRI,840914,42531,35412,3,30,110,B1,glasses,3,3#,4319.4673326,4622.4793564,303.0120238,0,0
2880,7&,1,11,51,62,21,32,42,Abstract_Concrete_6tasks_simseq_2seq_listtask_switchAB_fMRI,840914,42531,35412,3,31,111,A5,helmet,1,7&,4319.4673326,4632.4797881,313.0124555,0,0
3037,8*,1,11,52,62,22,32,41,Abstract_Concrete_6tasks_simseq_2seq_listtask_switchAB_fMRI,840914,42531,35412,3,32,112,B3,weapon,5,8*,4319.4673326,4642.4783354,323.0110028,0,0
2423,8*,1,12,51,62,22,31,42,Abstract_Concrete_6tasks_simseq_2seq_listtask_switchAB_fMRI,840914,42531,35412,3,33,113,A1,weapon,5,8*,4319.4673326,4653.480853,334.0135204,0,0
2923,8*,1,12,52,62,22,31,42,Abstract_Concrete_6tasks_simseq_2seq_listtask_switchAB_fMRI,840914,42531,35412,3,34,114,B3,weapon,5,8*,4319.4673326,4663.4791245,344.011791899999,0,0
3535,7&,1,11,51,61,21,32,41,Abstract_Concrete_6tasks_simseq_2seq_listtask_switchAB_fMRI,840914,42531,35412,3,35,115,A5,helmet,1,7&,4319.4673326,4673.4786248,354.0112922,0,0
4256,8*,1,12,51,61,22,31,42,Abstract_Concrete_6tasks_simseq_2seq_listtask_switchAB_fMRI,840914,42531,35412,3,36,116,B3,weapon,5,8*,4319.4673326,4684.4800438,365.0127112,0,0
2342,8*,1,12,52,62,22,32,42,Abstract_Concrete_6tasks_simseq_2seq_listtask_switchAB_fMRI,840914,42531,35412,3,37,117,A1,weapon,5,8*,4319.4673326,4696.4799923,377.0126597,0,0
2309,4$,1,11,51,61,21,32,42,Abstract_Concrete_6tasks_simseq_2seq_listtask_switchAB_fMRI,840914,42531,35412,3,38,118,B5,vest,2,4$,4319.4673326,4706.4787441,387.0114115,0,0
2180,8*,1,11,51,62,21,32,42,Abstract_Concrete_6tasks_simseq_2seq_listtask_switchAB_fMRI,840914,42531,35412,3,39,119,A1,weapon,5,8*,4319.4673326,4716.4791908,397.0118582,0,0
2465,4$,1,11,52,62,22,31,41,Abstract_Concrete_6tasks_simseq_2seq_listtask_switchAB_fMRI,840914,42531,35412,3,40,120,B5,vest,2,4$,4319.4673326,4726.479605,407.0122724,0,0
2150,4$,1,11,52,61,21,31,41,Abstract_Concrete_6tasks_simseq_2seq_listtask_switchAB_fMRI,840914,42531,35412,4,1,121,A2,vest,2,4$,5019.8575843,5027.8701275,8.01254320000044,0,0
1515,4$,1,12,52,62,22,32,41,Abstract_Concrete_6tasks_simseq_2seq_listtask_switchAB_fMRI,840914,42531,35412,4,2,122,B5,vest,2,4$,5019.8575843,5037.8678757,18.0102913999999,0,0
2142,8*,1,11,52,62,21,32,42,Abstract_Concrete_6tasks_simseq_2seq_listtask_switchAB_fMRI,840914,42531,35412,4,3,123,A1,weapon,5,8*,5019.8575843,5046.8689968,27.0114125,0,0
2428,9(,1,11,52,62,21,31,42,Abstract_Concrete_6tasks_simseq_2seq_listtask_switchAB_fMRI,840914,42531,35412,4,4,124,B2,tools,6,9(,5019.8575843,5056.8714784,37.0138941000005,0,0
1868,7&,1,11,51,62,22,31,41,Abstract_Concrete_6tasks_simseq_2seq_listtask_switchAB_fMRI,840914,42531,35412,4,5,125,A5,helmet,1,7&,5019.8575843,5066.8685242,47.0109399000003,0,0
3541,8*,1,11,51,62,21,31,41,Abstract_Concrete_6tasks_simseq_2seq_listtask_switchAB_fMRI,840914,42531,35412,4,6,126,B3,weapon,5,8*,5019.8575843,5075.8712693,56.0136849999999,0,0
2173,9(,1,12,52,61,22,32,42,Abstract_Concrete_6tasks_simseq_2seq_listtask_switchAB_fMRI,840914,42531,35412,4,7,127,A3,tools,6,9(,5019.8575843,5086.8695017,67.0119174000001,0,0
4708,7&,1,12,51,61,22,31,41,Abstract_Concrete_6tasks_simseq_2seq_listtask_switchAB_fMRI,840914,42531,35412,4,8,128,B4,helmet,1,7&,5019.8575843,5096.8694689,77.0118846000005,0,0
1688,9(,1,12,51,62,21,31,41,Abstract_Concrete_6tasks_simseq_2seq_listtask_switchAB_fMRI,840914,42531,35412,4,9,129,A3,tools,6,9(,5019.8575843,5108.8687196,89.0111353000002,0,0
3477,9(,1,12,51,62,21,32,41,Abstract_Concrete_6tasks_simseq_2seq_listtask_switchAB_fMRI,840914,42531,35412,4,10,130,B2,tools,6,9(,5019.8575843,5117.870423,98.0128387000004,0,0
1859,8*,1,11,52,61,22,32,41,Abstract_Concrete_6tasks_simseq_2seq_listtask_switchAB_fMRI,840914,42531,35412,4,11,131,A1,weapon,5,8*,5019.8575843,5128.8707991,109.0132148,0,0
2804,8*,0,12,51,62,21,31,42,Abstract_Concrete_6tasks_simseq_2seq_listtask_switchAB_fMRI,840914,42531,35412,4,12,132,B1,glasses,3,3#,5019.8575843,5137.8690052,118.0114209,5140.6871914,120.8296071
3660,9(,1,11,52,62,21,32,41,Abstract_Concrete_6tasks_simseq_2seq_listtask_switchAB_fMRI,840914,42531,35412,4,13,133,A3,tools,6,9(,5019.8575843,5147.8685733,128.010989,0,0
1990,3#,1,12,51,62,21,31,41,Abstract_Concrete_6tasks_simseq_2seq_listtask_switchAB_fMRI,840914,42531,35412,4,14,134,B1,glasses,3,3#,5019.8575843,5158.869747,139.0121627,0,0
1483,4$,0,12,51,61,21,31,41,Abstract_Concrete_6tasks_simseq_2seq_listtask_switchAB_fMRI,840914,42531,35412,4,15,135,A5,helmet,1,7&,5019.8575843,5168.8709005,149.0133162,5170.3660803,150.508496
3700,4$,1,11,52,62,22,31,42,Abstract_Concrete_6tasks_simseq_2seq_listtask_switchAB_fMRI,840914,42531,35412,4,16,136,B5,vest,2,4$,5019.8575843,5177.868637,158.0110527,0,0
1984,7&,1,12,52,61,22,31,41,Abstract_Concrete_6tasks_simseq_2seq_listtask_switchAB_fMRI,840914,42531,35412,4,17,137,A5,helmet,1,7&,5019.8575843,5188.868637,169.0110527,0,0
2039,9(,1,12,51,61,22,31,41,Abstract_Concrete_6tasks_simseq_2seq_listtask_switchAB_fMRI,840914,42531,35412,4,18,138,B2,tools,6,9(,5019.8575843,5197.8692419,178.0116576,0,0
1760,9(,1,12,52,61,22,31,41,Abstract_Concrete_6tasks_simseq_2seq_listtask_switchAB_fMRI,840914,42531,35412,4,19,139,A3,tools,6,9(,5019.8575843,5207.869123,188.011538700001,0,0
2083,3#,1,12,52,61,21,32,42,Abstract_Concrete_6tasks_simseq_2seq_listtask_switchAB_fMRI,840914,42531,35412,4,20,140,B1,glasses,3,3#,5019.8575843,5216.868952,197.0113677,0,0
1573,4$,1,11,52,61,21,31,42,Abstract_Concrete_6tasks_simseq_2seq_listtask_switchAB_fMRI,840914,42531,35412,4,21,141,A2,vest,2,4$,5019.8575843,5226.8715733,207.013989,0,0
2211,3#,1,11,51,62,22,31,41,Abstract_Concrete_6tasks_simseq_2seq_listtask_switchAB_fMRI,840914,42531,35412,4,22,142,B1,glasses,3,3#,5019.8575843,5235.8695919,216.0120076,0,0
1577,4$,1,12,52,61,21,32,42,Abstract_Concrete_6tasks_simseq_2seq_listtask_switchAB_fMRI,840914,42531,35412,4,23,143,A2,vest,2,4$,5019.8575843,5245.8689931,226.0114088,0,0
2326,9(,1,12,52,61,22,31,42,Abstract_Concrete_6tasks_simseq_2seq_listtask_switchAB_fMRI,840914,42531,35412,4,24,144,B2,tools,6,9(,5019.8575843,5254.8695872,235.0120029,0,0
3312,8*,1,12,52,62,22,31,42,Abstract_Concrete_6tasks_simseq_2seq_listtask_switchAB_fMRI,840914,42531,35412,4,25,145,A1,weapon,5,8*,5019.8575843,5264.8697768,245.0121925,0,0
2263,8*,1,12,51,62,21,32,41,Abstract_Concrete_6tasks_simseq_2seq_listtask_switchAB_fMRI,840914,42531,35412,4,26,146,B3,weapon,5,8*,5019.8575843,5275.8716734,256.0140891,0,0
1550,4$,1,11,51,62,21,32,41,Abstract_Concrete_6tasks_simseq_2seq_listtask_switchAB_fMRI,840914,42531,35412,4,27,147,A2,vest,2,4$,5019.8575843,5285.8691739,266.0115896,0,0
2773,8*,1,11,51,61,21,32,42,Abstract_Concrete_6tasks_simseq_2seq_listtask_switchAB_fMRI,840914,42531,35412,4,28,148,B3,weapon,5,8*,5019.8575843,5294.870651,275.0130667,0,0
2121,3#,1,11,51,62,21,31,42,Abstract_Concrete_6tasks_simseq_2seq_listtask_switchAB_fMRI,840914,42531,35412,4,29,149,A4,glasses,3,3#,5019.8575843,5304.8696521,285.0120678,0,0
2672,7&,1,11,52,62,21,32,41,Abstract_Concrete_6tasks_simseq_2seq_listtask_switchAB_fMRI,840914,42531,35412,4,30,150,B4,helmet,1,7&,5019.8575843,5314.8709182,295.0133339,0,0
2356,8*,1,11,51,62,21,31,41,Abstract_Concrete_6tasks_simseq_2seq_listtask_switchAB_fMRI,840914,42531,35412,4,31,151,A1,weapon,5,8*,5019.8575843,5324.8695921,305.0120078,0,0
5030,7&,1,12,52,61,21,32,41,Abstract_Concrete_6tasks_simseq_2seq_listtask_switchAB_fMRI,840914,42531,35412,4,32,152,B4,helmet,1,7&,5019.8575843,5334.8693017,315.0117174,0,0
2305,3#,1,11,52,62,21,31,42,Abstract_Concrete_6tasks_simseq_2seq_listtask_switchAB_fMRI,840914,42531,35412,4,33,153,A4,glasses,3,3#,5019.8575843,5347.8691569,328.0115726,0,0
2608,8*,1,11,51,62,22,31,42,Abstract_Concrete_6tasks_simseq_2seq_listtask_switchAB_fMRI,840914,42531,35412,4,34,154,B3,weapon,5,8*,5019.8575843,5357.8690147,338.0114304,0,0
2471,3#,1,11,51,61,22,32,41,Abstract_Concrete_6tasks_simseq_2seq_listtask_switchAB_fMRI,840914,42531,35412,4,35,155,A4,glasses,3,3#,5019.8575843,5367.8704438,348.012859500001,0,0
2354,4$,1,11,52,61,21,32,41,Abstract_Concrete_6tasks_simseq_2seq_listtask_switchAB_fMRI,840914,42531,35412,4,36,156,B5,vest,2,4$,5019.8575843,5377.8690884,358.0115041,0,0
3283,3#,1,11,51,62,21,32,42,Abstract_Concrete_6tasks_simseq_2seq_listtask_switchAB_fMRI,840914,42531,35412,4,37,157,A4,glasses,3,3#,5019.8575843,5387.8693801,368.0117958,0,0
5712,7&,1,11,52,62,22,32,41,Abstract_Concrete_6tasks_simseq_2seq_listtask_switchAB_fMRI,840914,42531,35412,4,38,158,B4,helmet,1,7&,5019.8575843,5398.8716539,379.0140696,0,0
1932,7&,1,12,51,62,21,31,41,Abstract_Concrete_6tasks_simseq_2seq_listtask_switchAB_fMRI,840914,42531,35412,4,39,159,A5,helmet,1,7&,5019.8575843,5411.8701061,392.0125218,0,0
2445,4$,1,11,51,61,21,32,42,Abstract_Concrete_6tasks_simseq_2seq_listtask_switchAB_fMRI,840914,42531,35412,4,40,160,B5,vest,2,4$,5019.8575843,5420.869529,401.0119447,0,0
2010,8*,1,12,52,62,21,31,42,Abstract_Concrete_6tasks_simseq_2seq_listtask_switchAB_fMRI,840914,42531,35412,5,1,161,A1,weapon,5,8*,5475.6661658,5483.6773904,8.01122459999988,0,0
2744,3#,1,12,52,62,22,32,42,Abstract_Concrete_6tasks_simseq_2seq_listtask_switchAB_fMRI,840914,42531,35412,5,2,162,B1,glasses,3,3#,5475.6661658,5493.6801046,18.0139387999998,0,0
2191,7&,1,11,51,61,21,31,42,Abstract_Concrete_6tasks_simseq_2seq_listtask_switchAB_fMRI,840914,42531,35412,5,3,163,A5,helmet,1,7&,5475.6661658,5503.678132,28.0119661999997,0,0
1429,3#,1,11,51,62,22,32,42,Abstract_Concrete_6tasks_simseq_2seq_listtask_switchAB_fMRI,840914,42531,35412,5,4,164,B1,glasses,3,3#,5475.6661658,5513.677086,38.0109201999994,0,0
3066,3#,1,11,52,61,21,31,42,Abstract_Concrete_6tasks_simseq_2seq_listtask_switchAB_fMRI,840914,42531,35412,5,5,165,A4,glasses,3,3#,5475.6661658,5522.6791809,47.0130150999994,0,0
2663,9(,1,12,52,62,22,31,41,Abstract_Concrete_6tasks_simseq_2seq_listtask_switchAB_fMRI,840914,42531,35412,5,6,166,B2,tools,6,9(,5475.6661658,5533.6799987,58.0138329000001,0,0
3477,8*,1,12,51,61,22,31,41,Abstract_Concrete_6tasks_simseq_2seq_listtask_switchAB_fMRI,840914,42531,35412,5,7,167,A1,weapon,5,8*,5475.6661658,5543.67774,68.0115741999998,0,0
3801,9(,1,12,51,61,21,31,42,Abstract_Concrete_6tasks_simseq_2seq_listtask_switchAB_fMRI,840914,42531,35412,5,8,168,B2,tools,6,9(,5475.6661658,5554.6794671,79.0133012999995,0,0
1690,4$,1,12,51,62,21,32,42,Abstract_Concrete_6tasks_simseq_2seq_listtask_switchAB_fMRI,840914,42531,35412,5,9,169,A2,vest,2,4$,5475.6661658,5565.6782431,90.0120772999999,0,0
4045,7&,1,11,52,62,22,31,41,Abstract_Concrete_6tasks_simseq_2seq_listtask_switchAB_fMRI,840914,42531,35412,5,10,170,B4,helmet,1,7&,5475.6661658,5574.6792798,99.0131139999994,0,0
1945,4$,1,11,51,62,22,31,41,Abstract_Concrete_6tasks_simseq_2seq_listtask_switchAB_fMRI,840914,42531,35412,5,11,171,A2,vest,2,4$,5475.6661658,5586.6790062,111.0128404,0,0
1751,3#,1,12,52,61,22,31,42,Abstract_Concrete_6tasks_simseq_2seq_listtask_switchAB_fMRI,840914,42531,35412,5,12,172,B1,glasses,3,3#,5475.6661658,5595.6766023,120.0104365,0,0
2134,9(,1,11,51,62,22,31,42,Abstract_Concrete_6tasks_simseq_2seq_listtask_switchAB_fMRI,840914,42531,35412,5,13,173,A3,tools,6,9(,5475.6661658,5604.6781164,129.0119506,0,0
2895,7&,1,12,51,61,21,31,41,Abstract_Concrete_6tasks_simseq_2seq_listtask_switchAB_fMRI,840914,42531,35412,5,14,174,B4,helmet,1,7&,5475.6661658,5614.6788511,139.0126853,0,0
2467,7&,1,12,51,61,22,32,41,Abstract_Concrete_6tasks_simseq_2seq_listtask_switchAB_fMRI,840914,42531,35412,5,15,175,A5,helmet,1,7&,5475.6661658,5624.6780237,149.0118579,0,0
1792,4$,1,12,52,62,21,32,41,Abstract_Concrete_6tasks_simseq_2seq_listtask_switchAB_fMRI,840914,42531,35412,5,16,176,B5,vest,2,4$,5475.6661658,5634.6795048,159.013339,0,0
1817,7&,1,11,52,62,21,32,41,Abstract_Concrete_6tasks_simseq_2seq_listtask_switchAB_fMRI,840914,42531,35412,5,17,177,A5,helmet,1,7&,5475.6661658,5643.6778182,168.0116524,0,0
1033,4$,1,11,51,62,21,32,41,Abstract_Concrete_6tasks_simseq_2seq_listtask_switchAB_fMRI,840914,42531,35412,5,18,178,B5,vest,2,4$,5475.6661658,5652.6781548,177.011989,0,0
2684,8*,1,11,52,62,22,31,41,Abstract_Concrete_6tasks_simseq_2seq_listtask_switchAB_fMRI,840914,42531,35412,5,19,179,A1,weapon,5,8*,5475.6661658,5661.677247,186.011081199999,0,0
2446,8*,1,11,51,61,22,31,41,Abstract_Concrete_6tasks_simseq_2seq_listtask_switchAB_fMRI,840914,42531,35412,5,20,180,B3,weapon,5,8*,5475.6661658,5671.6787118,196.012546,0,0
1735,7&,1,11,51,61,22,32,42,Abstract_Concrete_6tasks_simseq_2seq_listtask_switchAB_fMRI,840914,42531,35412,5,21,181,A5,helmet,1,7&,5475.6661658,5681.6778803,206.011714499999,0,0
2383,7&,1,12,51,62,21,32,42,Abstract_Concrete_6tasks_simseq_2seq_listtask_switchAB_fMRI,840914,42531,35412,5,22,182,B4,helmet,1,7&,5475.6661658,5690.6786081,215.0124423,0,0
2530,9(,1,11,52,62,21,31,41,Abstract_Concrete_6tasks_simseq_2seq_listtask_switchAB_fMRI,840914,42531,35412,5,23,183,A3,tools,6,9(,5475.6661658,5700.6769749,225.010809099999,0,0
3463,4$,1,11,51,61,21,31,41,Abstract_Concrete_6tasks_simseq_2seq_listtask_switchAB_fMRI,840914,42531,35412,5,24,184,B5,vest,2,4$,5475.6661658,5710.6790996,235.0129338,0,0
1677,4$,1,11,51,61,21,32,41,Abstract_Concrete_6tasks_simseq_2seq_listtask_switchAB_fMRI,840914,42531,35412,5,25,185,A2,vest,2,4$,5475.6661658,5721.6781531,246.011987299999,0,0
2746,9(,1,11,52,61,21,32,42,Abstract_Concrete_6tasks_simseq_2seq_listtask_switchAB_fMRI,840914,42531,35412,5,26,186,B2,tools,6,9(,5475.6661658,5730.6767288,255.010563,0,0
2678,9(,1,11,52,61,22,31,42,Abstract_Concrete_6tasks_simseq_2seq_listtask_switchAB_fMRI,840914,42531,35412,5,27,187,A3,tools,6,9(,5475.6661658,5740.6777982,265.0116324,0,0
3333,8*,1,12,51,61,21,32,42,Abstract_Concrete_6tasks_simseq_2seq_listtask_switchAB_fMRI,840914,42531,35412,5,28,188,B3,weapon,5,8*,5475.6661658,5750.6768996,275.0107338,0,0
2269,8*,1,12,51,62,22,31,42,Abstract_Concrete_6tasks_simseq_2seq_listtask_switchAB_fMRI,840914,42531,35412,5,29,189,A1,weapon,5,8*,5475.6661658,5761.6775557,286.0113899,0,0
1857,9(,1,11,52,62,22,32,41,Abstract_Concrete_6tasks_simseq_2seq_listtask_switchAB_fMRI,840914,42531,35412,5,30,190,B2,tools,6,9(,5475.6661658,5771.6778877,296.011721899999,0,0
2567,7&,0,12,52,61,21,32,42,Abstract_Concrete_6tasks_simseq_2seq_listtask_switchAB_fMRI,840914,42531,35412,5,31,191,A4,glasses,3,3#,5475.6661658,5780.6774417,305.011275899999,5783.2587178,307.592552
3160,7&,1,11,51,62,21,31,42,Abstract_Concrete_6tasks_simseq_2seq_listtask_switchAB_fMRI,840914,42531,35412,5,32,192,B4,helmet,1,7&,5475.6661658,5790.6767346,315.010568799999,0,0
2266,9(,1,12,52,61,22,31,42,Abstract_Concrete_6tasks_simseq_2seq_listtask_switchAB_fMRI,840914,42531,35412,5,33,193,A3,tools,6,9(,5475.6661658,5801.6769489,326.0107831,0,0
2252,8*,1,11,51,62,21,31,42,Abstract_Concrete_6tasks_simseq_2seq_listtask_switchAB_fMRI,840914,42531,35412,5,34,194,B3,weapon,5,8*,5475.6661658,5811.679618,336.0134522,0,0
2059,4$,1,11,52,61,22,32,42,Abstract_Concrete_6tasks_simseq_2seq_listtask_switchAB_fMRI,840914,42531,35412,5,35,195,A2,vest,2,4$,5475.6661658,5821.6773528,346.011187,0,0
1746,8*,1,11,52,62,21,32,41,Abstract_Concrete_6tasks_simseq_2seq_listtask_switchAB_fMRI,840914,42531,35412,5,36,196,B3,weapon,5,8*,5475.6661658,5831.6779309,356.0117651,0,0
2747,3#,1,12,51,62,22,32,41,Abstract_Concrete_6tasks_simseq_2seq_listtask_switchAB_fMRI,840914,42531,35412,5,37,197,A4,glasses,3,3#,5475.6661658,5840.6788266,365.0126608,0,0
1292,3#,1,11,52,62,21,32,41,Abstract_Concrete_6tasks_simseq_2seq_listtask_switchAB_fMRI,840914,42531,35412,5,38,198,B1,glasses,3,3#,5475.6661658,5850.6775985,375.0114327,0,0
2553,3#,1,12,51,61,22,32,42,Abstract_Concrete_6tasks_simseq_2seq_listtask_switchAB_fMRI,840914,42531,35412,5,39,199,A4,glasses,3,3#,5475.6661658,5859.6771576,384.0109918,0,0
2077,4$,1,11,52,62,21,31,41,Abstract_Concrete_6tasks_simseq_2seq_listtask_switchAB_fMRI,840914,42531,35412,5,40,200,B5,vest,2,4$,5475.6661658,5869.6779566,394.011790799999,0,0
1578,4$,1,11,51,61,22,31,42,Abstract_Concrete_6tasks_simseq_2seq_listtask_switchAB_fMRI,840914,42531,35412,6,1,201,A2,vest,2,4$,5953.2914435,5961.3022738,8.01083029999972,0,0
1924,8*,1,11,52,62,21,31,42,Abstract_Concrete_6tasks_simseq_2seq_listtask_switchAB_fMRI,840914,42531,35412,6,2,202,B3,weapon,5,8*,5953.2914435,5970.3046014,17.0131578999999,0,0
2896,8*,1,11,51,62,21,32,42,Abstract_Concrete_6tasks_simseq_2seq_listtask_switchAB_fMRI,840914,42531,35412,6,3,203,A1,weapon,5,8*,5953.2914435,5979.3023084,26.0108648999994,0,0
2214,9(,1,11,51,61,21,32,41,Abstract_Concrete_6tasks_simseq_2seq_listtask_switchAB_fMRI,840914,42531,35412,6,4,204,B2,tools,6,9(,5953.2914435,5989.3019891,36.0105456000001,0,0
1828,9(,1,11,52,61,21,32,42,Abstract_Concrete_6tasks_simseq_2seq_listtask_switchAB_fMRI,840914,42531,35412,6,5,205,A3,tools,6,9(,5953.2914435,5999.3039911,46.0125475999994,0,0
1434,4$,1,12,52,62,22,32,41,Abstract_Concrete_6tasks_simseq_2seq_listtask_switchAB_fMRI,840914,42531,35412,6,6,206,B5,vest,2,4$,5953.2914435,6008.3033431,55.0118996000001,0,0
1857,3#,1,11,51,61,22,31,41,Abstract_Concrete_6tasks_simseq_2seq_listtask_switchAB_fMRI,840914,42531,35412,6,7,207,A4,glasses,3,3#,5953.2914435,6017.3045976,64.0131541000001,0,0
1250,3#,1,12,51,61,22,31,41,Abstract_Concrete_6tasks_simseq_2seq_listtask_switchAB_fMRI,840914,42531,35412,6,8,208,B1,glasses,3,3#,5953.2914435,6026.311259,73.0198154999998,0,0
2425,3#,1,11,51,61,21,32,41,Abstract_Concrete_6tasks_simseq_2seq_listtask_switchAB_fMRI,840914,42531,35412,6,9,209,A4,glasses,3,3#,5953.2914435,6035.303648,82.0122044999998,0,0
2536,7&,1,12,51,61,21,32,42,Abstract_Concrete_6tasks_simseq_2seq_listtask_switchAB_fMRI,840914,42531,35412,6,10,210,B4,helmet,1,7&,5953.2914435,6045.3045356,92.0130921,0,0
3803,9(,1,11,52,61,21,32,41,Abstract_Concrete_6tasks_simseq_2seq_listtask_switchAB_fMRI,840914,42531,35412,6,11,211,A3,tools,6,9(,5953.2914435,6055.3038118,102.0123683,0,0
1971,4$,1,11,51,61,22,32,41,Abstract_Concrete_6tasks_simseq_2seq_listtask_switchAB_fMRI,840914,42531,35412,6,12,212,B5,vest,2,4$,5953.2914435,6066.3028576,113.011414099999,0,0
1618,7&,1,12,51,62,22,32,42,Abstract_Concrete_6tasks_simseq_2seq_listtask_switchAB_fMRI,840914,42531,35412,6,13,213,A5,helmet,1,7&,5953.2914435,6075.3032724,122.0118289,0,0
2764,7&,1,12,51,62,21,32,42,Abstract_Concrete_6tasks_simseq_2seq_listtask_switchAB_fMRI,840914,42531,35412,6,14,214,B4,helmet,1,7&,5953.2914435,6084.304619,131.013175499999,0,0
1761,9(,1,11,52,62,21,31,41,Abstract_Concrete_6tasks_simseq_2seq_listtask_switchAB_fMRI,840914,42531,35412,6,15,215,A3,tools,6,9(,5953.2914435,6094.3035116,141.0120681,0,0
2157,3#,1,12,52,62,21,31,41,Abstract_Concrete_6tasks_simseq_2seq_listtask_switchAB_fMRI,840914,42531,35412,6,16,216,B1,glasses,3,3#,5953.2914435,6103.3031816,150.0117381,0,0
1318,3#,0,11,51,62,22,31,41,Abstract_Concrete_6tasks_simseq_2seq_listtask_switchAB_fMRI,840914,42531,35412,6,17,217,A2,vest,2,4$,5953.2914435,6113.3038553,160.012411799999,6114.6373685,161.345925
2278,7&,1,11,52,62,22,31,41,Abstract_Concrete_6tasks_simseq_2seq_listtask_switchAB_fMRI,840914,42531,35412,6,18,218,B4,helmet,1,7&,5953.2914435,6122.30302,169.0115765,0,0
2634,8*,1,12,51,61,22,32,41,Abstract_Concrete_6tasks_simseq_2seq_listtask_switchAB_fMRI,840914,42531,35412,6,19,219,A1,weapon,5,8*,5953.2914435,6132.3051193,179.0136758,0,0
3368,8*,1,11,52,62,21,32,42,Abstract_Concrete_6tasks_simseq_2seq_listtask_switchAB_fMRI,840914,42531,35412,6,20,220,B3,weapon,5,8*,5953.2914435,6142.3033039,189.0118604,0,0
2270,3#,1,11,52,61,21,31,41,Abstract_Concrete_6tasks_simseq_2seq_listtask_switchAB_fMRI,840914,42531,35412,6,21,221,A4,glasses,3,3#,5953.2914435,6153.3028718,200.011428299999,0,0
3303,9(,1,12,51,61,21,31,42,Abstract_Concrete_6tasks_simseq_2seq_listtask_switchAB_fMRI,840914,42531,35412,6,22,222,B2,tools,6,9(,5953.2914435,6163.3037109,210.012267399999,0,0
1449,4$,1,12,51,62,22,32,42,Abstract_Concrete_6tasks_simseq_2seq_listtask_switchAB_fMRI,840914,42531,35412,6,23,223,A2,vest,2,4$,5953.2914435,6174.3053378,221.0138943,0,0
1919,4$,1,12,51,62,22,31,41,Abstract_Concrete_6tasks_simseq_2seq_listtask_switchAB_fMRI,840914,42531,35412,6,24,224,B5,vest,2,4$,5953.2914435,6183.302959,230.011515499999,0,0
2110,8*,1,12,52,61,22,31,42,Abstract_Concrete_6tasks_simseq_2seq_listtask_switchAB_fMRI,840914,42531,35412,6,25,225,A1,weapon,5,8*,5953.2914435,6192.3025495,239.011106,0,0
1301,3#,1,12,52,61,22,31,42,Abstract_Concrete_6tasks_simseq_2seq_listtask_switchAB_fMRI,840914,42531,35412,6,26,226,B1,glasses,3,3#,5953.2914435,6202.3022944,249.0108509,0,0
2118,9(,1,12,52,62,21,31,42,Abstract_Concrete_6tasks_simseq_2seq_listtask_switchAB_fMRI,840914,42531,35412,6,27,227,A3,tools,6,9(,5953.2914435,6211.304551,258.0131075,0,0
1533,3#,1,11,51,61,22,32,42,Abstract_Concrete_6tasks_simseq_2seq_listtask_switchAB_fMRI,840914,42531,35412,6,28,228,B1,glasses,3,3#,5953.2914435,6221.3026482,268.011204699999,0,0
2766,7&,1,11,51,61,21,31,41,Abstract_Concrete_6tasks_simseq_2seq_listtask_switchAB_fMRI,840914,42531,35412,6,29,229,A5,helmet,1,7&,5953.2914435,6230.301971,277.0105275,0,0
1936,8*,1,12,52,61,22,31,42,Abstract_Concrete_6tasks_simseq_2seq_listtask_switchAB_fMRI,840914,42531,35412,6,30,230,B3,weapon,5,8*,5953.2914435,6240.3015783,287.0101348,0,0
3007,3#,1,12,52,61,22,31,42,Abstract_Concrete_6tasks_simseq_2seq_listtask_switchAB_fMRI,840914,42531,35412,6,31,231,A4,glasses,3,3#,5953.2914435,6249.3023479,296.0109044,0,0
1753,9(,1,11,51,62,21,31,42,Abstract_Concrete_6tasks_simseq_2seq_listtask_switchAB_fMRI,840914,42531,35412,6,32,232,B2,tools,6,9(,5953.2914435,6260.302668,307.0112245,0,0
1640,7&,1,11,51,61,21,32,42,Abstract_Concrete_6tasks_simseq_2seq_listtask_switchAB_fMRI,840914,42531,35412,6,33,233,A5,helmet,1,7&,5953.2914435,6269.3023891,316.0109456,0,0
2390,7&,1,11,51,62,21,32,41,Abstract_Concrete_6tasks_simseq_2seq_listtask_switchAB_fMRI,840914,42531,35412,6,34,234,B4,helmet,1,7&,5953.2914435,6278.3022637,325.0108202,0,0
3285,8*,1,11,52,61,21,32,41,Abstract_Concrete_6tasks_simseq_2seq_listtask_switchAB_fMRI,840914,42531,35412,6,35,235,A1,weapon,5,8*,5953.2914435,6288.3032695,335.011826,0,0
1442,4$,1,11,51,62,21,32,41,Abstract_Concrete_6tasks_simseq_2seq_listtask_switchAB_fMRI,840914,42531,35412,6,36,236,B5,vest,2,4$,5953.2914435,6299.3045327,346.0130892,0,0
1859,4$,1,12,52,61,22,32,42,Abstract_Concrete_6tasks_simseq_2seq_listtask_switchAB_fMRI,840914,42531,35412,6,37,237,A2,vest,2,4$,5953.2914435,6308.3036022,355.012158699999,0,0
2019,8*,1,11,52,62,21,31,42,Abstract_Concrete_6tasks_simseq_2seq_listtask_switchAB_fMRI,840914,42531,35412,6,38,238,B3,weapon,5,8*,5953.2914435,6317.301868,364.010424499999,0,0
1616,7&,1,11,52,62,22,32,42,Abstract_Concrete_6tasks_simseq_2seq_listtask_switchAB_fMRI,840914,42531,35412,6,39,239,A5,helmet,1,7&,5953.2914435,6327.3037682,374.0123247,0,0
2538,9(,1,12,51,62,21,31,41,Abstract_Concrete_6tasks_simseq_2seq_listtask_switchAB_fMRI,840914,42531,35412,6,40,240,B2,tools,6,9(,5953.2914435,6336.304542,383.0130985,0,0
