rt1,resp1,correct1,features_1,features_2,features_3,features_4,features_5,features_6,ExpName,subNo,seqA,seqB,block,trial,trialnum,cuetype,task,subtaskcode,corr_resp1,onsetTime_s,onsetTime_cue,onset_cue,onsetTime_cue_fb,onset_cue_fb
4712,3#,1,21,62,41,32,12,51,Abstract_Concrete_6tasks_simseq_2seq_listtask_switchAB_fMRI,865002,12435,34152,1,1,1,B3,helmet,1,3#,3314.6479243,3322.6605733,8.01264900000024,0,0
3525,7&,1,21,61,42,32,12,52,Abstract_Concrete_6tasks_simseq_2seq_listtask_switchAB_fMRI,865002,12435,34152,1,2,2,A2,vest,2,7&,3314.6479243,3334.6598383,20.0119140000002,0,0
4683,7&,1,22,61,41,32,11,52,Abstract_Concrete_6tasks_simseq_2seq_listtask_switchAB_fMRI,865002,12435,34152,1,3,3,B5,vest,2,7&,3314.6479243,3345.6621658,31.0142415,0,0
5030,4$,1,21,62,42,32,12,51,Abstract_Concrete_6tasks_simseq_2seq_listtask_switchAB_fMRI,865002,12435,34152,1,4,4,A4,glasses,3,4$,3314.6479243,3357.6606804,43.0127560999999,0,0
5575,8*,1,22,61,42,31,12,51,Abstract_Concrete_6tasks_simseq_2seq_listtask_switchAB_fMRI,865002,12435,34152,1,5,5,B4,tools,6,8*,3314.6479243,3370.6582419,56.0103176000002,0,0
2299,3#,1,21,62,41,32,12,51,Abstract_Concrete_6tasks_simseq_2seq_listtask_switchAB_fMRI,865002,12435,34152,1,6,6,A1,helmet,1,3#,3314.6479243,3383.6593394,69.0114151000002,0,0
2856,2@,1,22,62,41,32,12,51,Abstract_Concrete_6tasks_simseq_2seq_listtask_switchAB_fMRI,865002,12435,34152,1,7,7,B2,weapon,5,2@,3314.6479243,3393.6590436,79.0111193000002,0,0
3712,4$,1,21,62,41,31,11,52,Abstract_Concrete_6tasks_simseq_2seq_listtask_switchAB_fMRI,865002,12435,34152,1,8,8,A4,glasses,3,4$,3314.6479243,3403.6610901,89.0131658,0,0
3373,4$,1,21,62,41,31,12,52,Abstract_Concrete_6tasks_simseq_2seq_listtask_switchAB_fMRI,865002,12435,34152,1,9,9,B1,glasses,3,4$,3314.6479243,3414.6611013,100.013177,0,0
2803,2@,1,21,61,42,31,11,52,Abstract_Concrete_6tasks_simseq_2seq_listtask_switchAB_fMRI,865002,12435,34152,1,10,10,A3,weapon,5,2@,3314.6479243,3425.6602546,111.0123303,0,0
2933,7&,1,21,61,41,31,11,51,Abstract_Concrete_6tasks_simseq_2seq_listtask_switchAB_fMRI,865002,12435,34152,1,11,11,B5,vest,2,7&,3314.6479243,3435.6597564,121.0118321,0,0
3389,8*,1,21,62,42,32,11,52,Abstract_Concrete_6tasks_simseq_2seq_listtask_switchAB_fMRI,865002,12435,34152,1,12,12,A5,tools,6,8*,3314.6479243,3445.6596101,131.0116858,0,0
3471,2@,1,22,62,41,32,11,52,Abstract_Concrete_6tasks_simseq_2seq_listtask_switchAB_fMRI,865002,12435,34152,1,13,13,B2,weapon,5,2@,3314.6479243,3456.6601181,142.0121938,0,0
1737,7&,1,22,61,41,32,12,51,Abstract_Concrete_6tasks_simseq_2seq_listtask_switchAB_fMRI,865002,12435,34152,1,14,14,A2,vest,2,7&,3314.6479243,3467.6606673,153.012743,0,0
4290,3#,1,21,62,41,31,11,52,Abstract_Concrete_6tasks_simseq_2seq_listtask_switchAB_fMRI,865002,12435,34152,1,15,15,B3,helmet,1,3#,3314.6479243,3476.6595961,162.0116718,0,0
4090,2@,1,22,61,41,31,12,51,Abstract_Concrete_6tasks_simseq_2seq_listtask_switchAB_fMRI,865002,12435,34152,1,16,16,A3,weapon,5,2@,3314.6479243,3488.6618332,174.0139089,0,0
3855,4$,1,22,62,41,31,11,51,Abstract_Concrete_6tasks_simseq_2seq_listtask_switchAB_fMRI,865002,12435,34152,1,17,17,B1,glasses,3,4$,3314.6479243,3500.6619545,186.0140302,0,0
4107,8*,1,22,61,42,31,12,52,Abstract_Concrete_6tasks_simseq_2seq_listtask_switchAB_fMRI,865002,12435,34152,1,18,18,A5,tools,6,8*,3314.6479243,3511.659032,197.0111077,0,0
3024,7&,1,22,61,41,32,12,52,Abstract_Concrete_6tasks_simseq_2seq_listtask_switchAB_fMRI,865002,12435,34152,1,19,19,B5,vest,2,7&,3314.6479243,3523.6595097,209.0115854,0,0
4209,4$,1,22,61,41,32,12,51,Abstract_Concrete_6tasks_simseq_2seq_listtask_switchAB_fMRI,865002,12435,34152,1,20,20,A4,glasses,3,4$,3314.6479243,3534.6600541,220.0121298,0,0
2426,4$,1,21,62,42,31,11,52,Abstract_Concrete_6tasks_simseq_2seq_listtask_switchAB_fMRI,865002,12435,34152,1,21,21,B1,glasses,3,4$,3314.6479243,3546.6619163,232.013992,0,0
2526,3#,1,22,62,41,32,11,52,Abstract_Concrete_6tasks_simseq_2seq_listtask_switchAB_fMRI,865002,12435,34152,1,22,22,A1,helmet,1,3#,3314.6479243,3556.6580776,242.0101533,0,0
3011,3#,1,22,61,41,31,11,51,Abstract_Concrete_6tasks_simseq_2seq_listtask_switchAB_fMRI,865002,12435,34152,1,23,23,B3,helmet,1,3#,3314.6479243,3566.659741,252.0118167,0,0
3237,8*,1,21,62,41,31,11,51,Abstract_Concrete_6tasks_simseq_2seq_listtask_switchAB_fMRI,865002,12435,34152,1,24,24,A5,tools,6,8*,3314.6479243,3577.662495,263.0145707,0,0
2953,4$,1,21,61,41,31,11,52,Abstract_Concrete_6tasks_simseq_2seq_listtask_switchAB_fMRI,865002,12435,34152,1,25,25,B1,glasses,3,4$,3314.6479243,3588.659477,274.0115527,0,0
3809,2@,1,21,62,42,32,12,52,Abstract_Concrete_6tasks_simseq_2seq_listtask_switchAB_fMRI,865002,12435,34152,1,26,26,A3,weapon,5,2@,3314.6479243,3598.6568685,284.0089442,0,0
2601,2@,1,22,62,42,32,11,51,Abstract_Concrete_6tasks_simseq_2seq_listtask_switchAB_fMRI,865002,12435,34152,1,27,27,B2,weapon,5,2@,3314.6479243,3609.65914,295.0112157,0,0
4107,2@,1,21,62,41,32,12,51,Abstract_Concrete_6tasks_simseq_2seq_listtask_switchAB_fMRI,865002,12435,34152,1,28,28,A3,weapon,5,2@,3314.6479243,3619.6593059,305.0113816,0,0
2675,7&,1,22,61,42,31,11,52,Abstract_Concrete_6tasks_simseq_2seq_listtask_switchAB_fMRI,865002,12435,34152,1,29,29,B5,vest,2,7&,3314.6479243,3631.6625698,317.0146455,0,0
2687,8*,1,21,61,42,32,12,52,Abstract_Concrete_6tasks_simseq_2seq_listtask_switchAB_fMRI,865002,12435,34152,1,30,30,A5,tools,6,8*,3314.6479243,3641.6591771,327.0112528,0,0
2331,8*,1,21,61,41,31,11,51,Abstract_Concrete_6tasks_simseq_2seq_listtask_switchAB_fMRI,865002,12435,34152,1,31,31,B4,tools,6,8*,3314.6479243,3651.660513,337.0125887,0,0
4232,4$,1,22,61,42,31,11,51,Abstract_Concrete_6tasks_simseq_2seq_listtask_switchAB_fMRI,865002,12435,34152,1,32,32,A4,glasses,3,4$,3314.6479243,3661.6606707,347.0127464,0,0
4423,8*,1,21,62,42,31,11,52,Abstract_Concrete_6tasks_simseq_2seq_listtask_switchAB_fMRI,865002,12435,34152,1,33,33,B4,tools,6,8*,3314.6479243,3673.6607858,359.0128615,0,0
2340,7&,1,22,62,42,32,12,51,Abstract_Concrete_6tasks_simseq_2seq_listtask_switchAB_fMRI,865002,12435,34152,1,34,34,A2,vest,2,7&,3314.6479243,3685.6600684,371.0121441,0,0
2131,8*,1,22,61,41,32,12,52,Abstract_Concrete_6tasks_simseq_2seq_listtask_switchAB_fMRI,865002,12435,34152,1,35,35,B4,tools,6,8*,3314.6479243,3695.6598898,381.0119655,0,0
2285,3#,1,22,61,41,31,11,52,Abstract_Concrete_6tasks_simseq_2seq_listtask_switchAB_fMRI,865002,12435,34152,1,36,36,A1,helmet,1,3#,3314.6479243,3705.6594351,391.0115108,0,0
2630,3#,1,22,61,41,32,11,52,Abstract_Concrete_6tasks_simseq_2seq_listtask_switchAB_fMRI,865002,12435,34152,1,37,37,B3,helmet,1,3#,3314.6479243,3715.6591215,401.0111972,0,0
1850,3#,1,21,61,42,31,12,51,Abstract_Concrete_6tasks_simseq_2seq_listtask_switchAB_fMRI,865002,12435,34152,1,38,38,A1,helmet,1,3#,3314.6479243,3725.6586732,411.0107489,0,0
2208,2@,1,22,62,41,31,11,51,Abstract_Concrete_6tasks_simseq_2seq_listtask_switchAB_fMRI,865002,12435,34152,1,39,39,B2,weapon,5,2@,3314.6479243,3734.6593739,420.0114496,0,0
2732,7&,1,22,62,41,31,12,51,Abstract_Concrete_6tasks_simseq_2seq_listtask_switchAB_fMRI,865002,12435,34152,1,40,40,A2,vest,2,7&,3314.6479243,3744.6599121,430.0119878,0,0
4110,2@,1,22,62,41,32,12,52,Abstract_Concrete_6tasks_simseq_2seq_listtask_switchAB_fMRI,865002,12435,34152,2,1,41,A3,weapon,5,2@,3800.4606398,3808.46862208665,8.00798228664962,0,0
5301,8*,1,22,62,41,31,11,51,Abstract_Concrete_6tasks_simseq_2seq_listtask_switchAB_fMRI,865002,12435,34152,2,2,42,B4,tools,6,8*,3800.4606398,3820.46831055285,20.0076707528488,0,0
3662,7&,1,21,61,42,31,12,52,Abstract_Concrete_6tasks_simseq_2seq_listtask_switchAB_fMRI,865002,12435,34152,2,3,43,A2,vest,2,7&,3800.4606398,3833.46786459387,33.007224793867,0,0
2417,3#,1,22,61,41,31,11,51,Abstract_Concrete_6tasks_simseq_2seq_listtask_switchAB_fMRI,865002,12435,34152,2,4,44,B3,helmet,1,3#,3800.4606398,3844.4724639,44.0118241,0,0
2673,4$,1,21,61,42,32,12,51,Abstract_Concrete_6tasks_simseq_2seq_listtask_switchAB_fMRI,865002,12435,34152,2,5,45,A4,glasses,3,4$,3800.4606398,3854.4731151,54.0124753,0,0
3134,4$,1,22,61,42,32,11,51,Abstract_Concrete_6tasks_simseq_2seq_listtask_switchAB_fMRI,865002,12435,34152,2,6,46,B1,glasses,3,4$,3800.4606398,3864.4719155,64.0112756999997,0,0
7038,4$,1,21,62,42,31,12,52,Abstract_Concrete_6tasks_simseq_2seq_listtask_switchAB_fMRI,865002,12435,34152,2,7,47,A4,glasses,3,4$,3800.4606398,3875.4752581,75.0146182999997,0,0
2480,2@,1,22,62,41,32,12,52,Abstract_Concrete_6tasks_simseq_2seq_listtask_switchAB_fMRI,865002,12435,34152,2,8,48,B2,weapon,5,2@,3800.4606398,3890.4731013,90.0124615,0,0
3469,2@,1,22,61,42,32,12,52,Abstract_Concrete_6tasks_simseq_2seq_listtask_switchAB_fMRI,865002,12435,34152,2,9,49,A3,weapon,5,2@,3800.4606398,3900.4734211,100.0127813,0,0
2778,2@,1,21,61,42,32,11,51,Abstract_Concrete_6tasks_simseq_2seq_listtask_switchAB_fMRI,865002,12435,34152,2,10,50,B2,weapon,5,2@,3800.4606398,3911.4720271,111.0113873,0,0
1896,2@,1,22,62,42,32,12,52,Abstract_Concrete_6tasks_simseq_2seq_listtask_switchAB_fMRI,865002,12435,34152,2,11,51,A3,weapon,5,2@,3800.4606398,3921.4726602,121.0120204,0,0
3183,7&,1,22,62,41,32,11,52,Abstract_Concrete_6tasks_simseq_2seq_listtask_switchAB_fMRI,865002,12435,34152,2,12,52,B5,vest,2,7&,3800.4606398,3930.4728826,130.0122428,0,0
3955,8*,1,21,61,42,32,12,51,Abstract_Concrete_6tasks_simseq_2seq_listtask_switchAB_fMRI,865002,12435,34152,2,13,53,A5,tools,6,8*,3800.4606398,3941.4746687,141.0140289,0,0
2982,7&,1,22,62,41,32,12,52,Abstract_Concrete_6tasks_simseq_2seq_listtask_switchAB_fMRI,865002,12435,34152,2,14,54,B5,vest,2,7&,3800.4606398,3952.4734206,152.0127808,0,0
2985,3#,1,22,61,42,32,11,52,Abstract_Concrete_6tasks_simseq_2seq_listtask_switchAB_fMRI,865002,12435,34152,2,15,55,A1,helmet,1,3#,3800.4606398,3962.4716634,162.0110236,0,0
3781,2@,1,21,61,42,32,12,51,Abstract_Concrete_6tasks_simseq_2seq_listtask_switchAB_fMRI,865002,12435,34152,2,16,56,B2,weapon,5,2@,3800.4606398,3972.4720998,172.01146,0,0
4037,4$,1,21,62,42,31,11,52,Abstract_Concrete_6tasks_simseq_2seq_listtask_switchAB_fMRI,865002,12435,34152,2,17,57,A4,glasses,3,4$,3800.4606398,3983.4723168,183.011677,0,0
1880,4$,1,21,61,41,31,12,52,Abstract_Concrete_6tasks_simseq_2seq_listtask_switchAB_fMRI,865002,12435,34152,2,18,58,B1,glasses,3,4$,3800.4606398,3995.47445,195.0138102,0,0
2397,8*,1,22,61,41,31,11,51,Abstract_Concrete_6tasks_simseq_2seq_listtask_switchAB_fMRI,865002,12435,34152,2,19,59,A5,tools,6,8*,3800.4606398,4004.4738192,204.0131794,0,0
4057,7&,1,22,61,42,31,11,51,Abstract_Concrete_6tasks_simseq_2seq_listtask_switchAB_fMRI,865002,12435,34152,2,20,60,B5,vest,2,7&,3800.4606398,4014.4728597,214.0122199,0,0
2394,3#,1,21,62,41,31,11,51,Abstract_Concrete_6tasks_simseq_2seq_listtask_switchAB_fMRI,865002,12435,34152,2,21,61,A1,helmet,1,3#,3800.4606398,4026.4732708,226.012631,0,0
2614,4$,1,21,62,42,32,12,51,Abstract_Concrete_6tasks_simseq_2seq_listtask_switchAB_fMRI,865002,12435,34152,2,22,62,B1,glasses,3,4$,3800.4606398,4036.4720678,236.011428,0,0
1804,7&,1,21,61,41,31,12,51,Abstract_Concrete_6tasks_simseq_2seq_listtask_switchAB_fMRI,865002,12435,34152,2,23,63,A2,vest,2,7&,3800.4606398,4046.472567,246.0119272,0,0
1721,4$,1,21,61,41,32,11,51,Abstract_Concrete_6tasks_simseq_2seq_listtask_switchAB_fMRI,865002,12435,34152,2,24,64,B1,glasses,3,4$,3800.4606398,4055.4723886,255.0117488,0,0
2787,8*,1,21,61,42,32,11,52,Abstract_Concrete_6tasks_simseq_2seq_listtask_switchAB_fMRI,865002,12435,34152,2,25,65,A5,tools,6,8*,3800.4606398,4064.4697568,264.009117,0,0
2217,8*,1,22,62,42,31,11,52,Abstract_Concrete_6tasks_simseq_2seq_listtask_switchAB_fMRI,865002,12435,34152,2,26,66,B4,tools,6,8*,3800.4606398,4074.4732442,274.0126044,0,0
2268,8*,1,21,61,41,31,11,52,Abstract_Concrete_6tasks_simseq_2seq_listtask_switchAB_fMRI,865002,12435,34152,2,27,67,A5,tools,6,8*,3800.4606398,4084.4713116,284.0106718,0,0
1676,2@,1,21,62,41,32,11,52,Abstract_Concrete_6tasks_simseq_2seq_listtask_switchAB_fMRI,865002,12435,34152,2,28,68,B2,weapon,5,2@,3800.4606398,4094.4705154,294.0098756,0,0
2258,3#,1,21,61,41,31,11,52,Abstract_Concrete_6tasks_simseq_2seq_listtask_switchAB_fMRI,865002,12435,34152,2,29,69,A1,helmet,1,3#,3800.4606398,4103.4696717,303.0090319,0,0
2670,8*,1,22,61,42,32,12,52,Abstract_Concrete_6tasks_simseq_2seq_listtask_switchAB_fMRI,865002,12435,34152,2,30,70,B4,tools,6,8*,3800.4606398,4113.4731096,313.0124698,0,0
3074,3#,1,22,61,42,31,12,52,Abstract_Concrete_6tasks_simseq_2seq_listtask_switchAB_fMRI,865002,12435,34152,2,31,71,A1,helmet,1,3#,3800.4606398,4123.4720138,323.011374,0,0
2681,3#,1,21,62,42,32,12,52,Abstract_Concrete_6tasks_simseq_2seq_listtask_switchAB_fMRI,865002,12435,34152,2,32,72,B3,helmet,1,3#,3800.4606398,4134.4742073,334.0135675,0,0
3568,4$,1,22,62,42,32,12,52,Abstract_Concrete_6tasks_simseq_2seq_listtask_switchAB_fMRI,865002,12435,34152,2,33,73,A4,glasses,3,4$,3800.4606398,4144.4741547,344.0135149,0,0
1896,3#,1,21,61,42,32,11,52,Abstract_Concrete_6tasks_simseq_2seq_listtask_switchAB_fMRI,865002,12435,34152,2,34,74,B3,helmet,1,3#,3800.4606398,4155.4720327,355.0113929,0,0
1825,3#,0,22,61,41,31,11,52,Abstract_Concrete_6tasks_simseq_2seq_listtask_switchAB_fMRI,865002,12435,34152,2,35,75,A3,weapon,5,2@,3800.4606398,4164.4719264,364.011286599999,4166.3122219,365.8515821
2077,3#,1,22,62,41,31,11,52,Abstract_Concrete_6tasks_simseq_2seq_listtask_switchAB_fMRI,865002,12435,34152,2,36,76,B3,helmet,1,3#,3800.4606398,4173.4704361,373.0097963,0,0
1731,7&,1,22,61,42,31,11,52,Abstract_Concrete_6tasks_simseq_2seq_listtask_switchAB_fMRI,865002,12435,34152,2,37,77,A2,vest,2,7&,3800.4606398,4183.4723179,383.0116781,0,0
2322,8*,1,21,62,41,31,12,51,Abstract_Concrete_6tasks_simseq_2seq_listtask_switchAB_fMRI,865002,12435,34152,2,38,78,B4,tools,6,8*,3800.4606398,4192.4711225,392.0104827,0,0
2897,7&,1,21,61,41,31,11,51,Abstract_Concrete_6tasks_simseq_2seq_listtask_switchAB_fMRI,865002,12435,34152,2,39,79,A2,vest,2,7&,3800.4606398,4202.4725172,402.0118774,0,0
3799,7&,1,21,61,41,32,12,52,Abstract_Concrete_6tasks_simseq_2seq_listtask_switchAB_fMRI,865002,12435,34152,2,40,80,B5,vest,2,7&,3800.4606398,4212.4727312,412.0120914,0,0
3642,8*,1,21,61,42,32,12,52,Abstract_Concrete_6tasks_simseq_2seq_listtask_switchAB_fMRI,865002,12435,34152,3,1,81,B4,tools,6,8*,4276.5168892,4284.5318325,8.01494329999969,0,0
2939,2@,1,22,62,42,32,11,52,Abstract_Concrete_6tasks_simseq_2seq_listtask_switchAB_fMRI,865002,12435,34152,3,2,82,A3,weapon,5,2@,4276.5168892,4295.5270328,19.0101435999995,0,0
1742,2@,1,21,61,42,32,12,52,Abstract_Concrete_6tasks_simseq_2seq_listtask_switchAB_fMRI,865002,12435,34152,3,3,83,B2,weapon,5,2@,4276.5168892,4305.5287114,29.0118222000001,0,0
2930,8*,1,21,62,42,31,12,51,Abstract_Concrete_6tasks_simseq_2seq_listtask_switchAB_fMRI,865002,12435,34152,3,4,84,A5,tools,6,8*,4276.5168892,4314.5306414,38.0137521999995,0,0
2248,2@,1,21,61,42,32,11,52,Abstract_Concrete_6tasks_simseq_2seq_listtask_switchAB_fMRI,865002,12435,34152,3,5,85,B2,weapon,5,2@,4276.5168892,4324.5289331,48.0120439000002,0,0
2104,3#,1,21,61,41,31,11,52,Abstract_Concrete_6tasks_simseq_2seq_listtask_switchAB_fMRI,865002,12435,34152,3,6,86,A1,helmet,1,3#,4276.5168892,4334.5304428,58.0135535999998,0,0
2786,8*,1,21,61,42,31,11,51,Abstract_Concrete_6tasks_simseq_2seq_listtask_switchAB_fMRI,865002,12435,34152,3,7,87,B4,tools,6,8*,4276.5168892,4344.5269285,68.0100393000002,0,0
2904,8*,1,21,61,41,32,11,52,Abstract_Concrete_6tasks_simseq_2seq_listtask_switchAB_fMRI,865002,12435,34152,3,8,88,A5,tools,6,8*,4276.5168892,4354.530454,78.0135647999996,0,0
2098,2@,1,22,61,42,31,11,51,Abstract_Concrete_6tasks_simseq_2seq_listtask_switchAB_fMRI,865002,12435,34152,3,9,89,B2,weapon,5,2@,4276.5168892,4364.5297133,88.0128241000002,0,0
1470,3#,1,21,61,41,31,12,52,Abstract_Concrete_6tasks_simseq_2seq_listtask_switchAB_fMRI,865002,12435,34152,3,10,90,A1,helmet,1,3#,4276.5168892,4374.5288062,98.0119169999998,0,0
2738,3#,1,22,61,42,32,12,51,Abstract_Concrete_6tasks_simseq_2seq_listtask_switchAB_fMRI,865002,12435,34152,3,11,91,B3,helmet,1,3#,4276.5168892,4383.5281943,107.0113051,0,0
1716,3#,1,22,62,41,31,12,52,Abstract_Concrete_6tasks_simseq_2seq_listtask_switchAB_fMRI,865002,12435,34152,3,12,92,A1,helmet,1,3#,4276.5168892,4393.5290591,117.0121699,0,0
2088,4$,1,21,62,42,32,11,52,Abstract_Concrete_6tasks_simseq_2seq_listtask_switchAB_fMRI,865002,12435,34152,3,13,93,B1,glasses,3,4$,4276.5168892,4402.5292923,126.0124031,0,0
1596,7&,1,21,61,41,32,11,52,Abstract_Concrete_6tasks_simseq_2seq_listtask_switchAB_fMRI,865002,12435,34152,3,14,94,A2,vest,2,7&,4276.5168892,4412.5292488,136.012359599999,0,0
1213,4$,1,22,61,42,32,11,52,Abstract_Concrete_6tasks_simseq_2seq_listtask_switchAB_fMRI,865002,12435,34152,3,15,95,B1,glasses,3,4$,4276.5168892,4421.5277314,145.0108422,0,0
4434,4$,1,21,62,41,31,11,51,Abstract_Concrete_6tasks_simseq_2seq_listtask_switchAB_fMRI,865002,12435,34152,3,16,96,A4,glasses,3,4$,4276.5168892,4430.528157,154.0112678,0,0
1832,2@,1,21,62,41,32,11,52,Abstract_Concrete_6tasks_simseq_2seq_listtask_switchAB_fMRI,865002,12435,34152,3,17,97,B2,weapon,5,2@,4276.5168892,4442.5301011,166.0132119,0,0
3128,4$,1,22,62,41,32,11,51,Abstract_Concrete_6tasks_simseq_2seq_listtask_switchAB_fMRI,865002,12435,34152,3,18,98,A4,glasses,3,4$,4276.5168892,4451.5296744,175.0127852,0,0
3100,3#,1,21,61,42,32,12,52,Abstract_Concrete_6tasks_simseq_2seq_listtask_switchAB_fMRI,865002,12435,34152,3,19,99,B3,helmet,1,3#,4276.5168892,4462.5304297,186.0135405,0,0
5862,2@,1,22,61,41,31,11,51,Abstract_Concrete_6tasks_simseq_2seq_listtask_switchAB_fMRI,865002,12435,34152,3,20,100,A3,weapon,5,2@,4276.5168892,4473.5291072,197.012218,0,0
3103,8*,1,22,61,42,31,11,52,Abstract_Concrete_6tasks_simseq_2seq_listtask_switchAB_fMRI,865002,12435,34152,3,21,101,B4,tools,6,8*,4276.5168892,4486.5292394,210.0123502,0,0
2459,2@,1,21,62,41,31,11,51,Abstract_Concrete_6tasks_simseq_2seq_listtask_switchAB_fMRI,865002,12435,34152,3,22,102,A3,weapon,5,2@,4276.5168892,4497.5285586,221.0116694,0,0
2828,3#,1,22,61,42,31,12,51,Abstract_Concrete_6tasks_simseq_2seq_listtask_switchAB_fMRI,865002,12435,34152,3,23,103,B3,helmet,1,3#,4276.5168892,4507.5273158,231.0104266,0,0
2791,8*,1,21,62,42,31,11,52,Abstract_Concrete_6tasks_simseq_2seq_listtask_switchAB_fMRI,865002,12435,34152,3,24,104,A5,tools,6,8*,4276.5168892,4517.5293374,241.0124482,0,0
4902,7&,1,22,61,42,31,11,52,Abstract_Concrete_6tasks_simseq_2seq_listtask_switchAB_fMRI,865002,12435,34152,3,25,105,B5,vest,2,7&,4276.5168892,4527.5275035,251.0106143,0,0
3178,7&,1,22,62,41,31,12,51,Abstract_Concrete_6tasks_simseq_2seq_listtask_switchAB_fMRI,865002,12435,34152,3,26,106,A2,vest,2,7&,4276.5168892,4539.5268401,263.0099509,0,0
3100,7&,1,22,62,41,31,12,51,Abstract_Concrete_6tasks_simseq_2seq_listtask_switchAB_fMRI,865002,12435,34152,3,27,107,B5,vest,2,7&,4276.5168892,4550.5302193,274.0133301,0,0
3729,8*,1,22,61,42,31,12,52,Abstract_Concrete_6tasks_simseq_2seq_listtask_switchAB_fMRI,865002,12435,34152,3,28,108,A5,tools,6,8*,4276.5168892,4561.5288253,285.0119361,0,0
2140,4$,1,22,61,42,32,11,52,Abstract_Concrete_6tasks_simseq_2seq_listtask_switchAB_fMRI,865002,12435,34152,3,29,109,B1,glasses,3,4$,4276.5168892,4572.5304437,296.0135545,0,0
3346,2@,1,21,62,42,31,11,52,Abstract_Concrete_6tasks_simseq_2seq_listtask_switchAB_fMRI,865002,12435,34152,3,30,110,A3,weapon,5,2@,4276.5168892,4582.5298037,306.0129145,0,0
3713,3#,1,22,62,42,31,12,51,Abstract_Concrete_6tasks_simseq_2seq_listtask_switchAB_fMRI,865002,12435,34152,3,31,111,B3,helmet,1,3#,4276.5168892,4593.5305527,317.0136635,0,0
3788,4$,1,21,62,41,32,12,52,Abstract_Concrete_6tasks_simseq_2seq_listtask_switchAB_fMRI,865002,12435,34152,3,32,112,A4,glasses,3,4$,4276.5168892,4604.5269539,328.0100647,0,0
1909,7&,1,21,61,42,32,12,52,Abstract_Concrete_6tasks_simseq_2seq_listtask_switchAB_fMRI,865002,12435,34152,3,33,113,B5,vest,2,7&,4276.5168892,4615.5283782,339.011489,0,0
2207,7&,1,21,61,42,31,11,51,Abstract_Concrete_6tasks_simseq_2seq_listtask_switchAB_fMRI,865002,12435,34152,3,34,114,A2,vest,2,7&,4276.5168892,4624.5282811,348.0113919,0,0
2617,7&,1,21,62,42,31,12,51,Abstract_Concrete_6tasks_simseq_2seq_listtask_switchAB_fMRI,865002,12435,34152,3,35,115,B5,vest,2,7&,4276.5168892,4634.5276276,358.0107384,0,0
2365,3#,1,22,62,41,31,12,52,Abstract_Concrete_6tasks_simseq_2seq_listtask_switchAB_fMRI,865002,12435,34152,3,36,116,A1,helmet,1,3#,4276.5168892,4644.5294504,368.0125612,0,0
3022,8*,1,22,61,42,31,12,52,Abstract_Concrete_6tasks_simseq_2seq_listtask_switchAB_fMRI,865002,12435,34152,3,37,117,B4,tools,6,8*,4276.5168892,4654.5296919,378.0128027,0,0
1662,7&,1,22,61,42,31,12,52,Abstract_Concrete_6tasks_simseq_2seq_listtask_switchAB_fMRI,865002,12435,34152,3,38,118,A2,vest,2,7&,4276.5168892,4665.5300401,389.0131509,0,0
1308,4$,1,21,61,42,32,11,51,Abstract_Concrete_6tasks_simseq_2seq_listtask_switchAB_fMRI,865002,12435,34152,3,39,119,B1,glasses,3,4$,4276.5168892,4674.5284188,398.011529599999,0,0
2819,4$,1,22,61,42,31,12,51,Abstract_Concrete_6tasks_simseq_2seq_listtask_switchAB_fMRI,865002,12435,34152,3,40,120,A4,glasses,3,4$,4276.5168892,4683.527983,407.0110938,0,0
2067,7&,1,22,62,42,31,12,52,Abstract_Concrete_6tasks_simseq_2seq_listtask_switchAB_fMRI,865002,12435,34152,4,1,121,A2,vest,2,7&,4858.4377561,4866.4483613,8.0106052000001,0,0
3057,8*,1,22,62,42,32,11,51,Abstract_Concrete_6tasks_simseq_2seq_listtask_switchAB_fMRI,865002,12435,34152,4,2,122,B4,tools,6,8*,4858.4377561,4876.450969,18.0132129000003,0,0
2293,8*,1,22,62,41,31,11,51,Abstract_Concrete_6tasks_simseq_2seq_listtask_switchAB_fMRI,865002,12435,34152,4,3,123,A5,tools,6,8*,4858.4377561,4887.4516886,29.0139325,0,0
2384,2@,1,22,61,41,31,11,52,Abstract_Concrete_6tasks_simseq_2seq_listtask_switchAB_fMRI,865002,12435,34152,4,4,124,B2,weapon,5,2@,4858.4377561,4897.4494091,39.0116529999996,0,0
1801,3#,1,21,61,41,32,11,52,Abstract_Concrete_6tasks_simseq_2seq_listtask_switchAB_fMRI,865002,12435,34152,4,5,125,A1,helmet,1,3#,4858.4377561,4907.4500313,49.0122751999997,0,0
1432,4$,1,21,61,42,32,12,52,Abstract_Concrete_6tasks_simseq_2seq_listtask_switchAB_fMRI,865002,12435,34152,4,6,126,B1,glasses,3,4$,4858.4377561,4916.449743,58.0119869,0,0
2380,4$,1,22,62,41,31,11,52,Abstract_Concrete_6tasks_simseq_2seq_listtask_switchAB_fMRI,865002,12435,34152,4,7,127,A4,glasses,3,4$,4858.4377561,4925.4488258,67.0110697,0,0
2441,4$,1,22,62,41,31,11,52,Abstract_Concrete_6tasks_simseq_2seq_listtask_switchAB_fMRI,865002,12435,34152,4,8,128,B1,glasses,3,4$,4858.4377561,4935.4493121,77.0115559999995,0,0
3788,2@,1,21,61,41,31,12,52,Abstract_Concrete_6tasks_simseq_2seq_listtask_switchAB_fMRI,865002,12435,34152,4,9,129,A3,weapon,5,2@,4858.4377561,4945.4502347,87.0124785999997,0,0
2958,3#,1,21,61,42,32,11,52,Abstract_Concrete_6tasks_simseq_2seq_listtask_switchAB_fMRI,865002,12435,34152,4,10,130,B3,helmet,1,3#,4858.4377561,4956.4509078,98.0131517,0,0
1546,7&,1,21,62,42,32,11,51,Abstract_Concrete_6tasks_simseq_2seq_listtask_switchAB_fMRI,865002,12435,34152,4,11,131,A2,vest,2,7&,4858.4377561,4966.4481599,108.0104038,0,0
2711,3#,1,22,61,42,31,12,52,Abstract_Concrete_6tasks_simseq_2seq_listtask_switchAB_fMRI,865002,12435,34152,4,12,132,B3,helmet,1,3#,4858.4377561,4975.4500399,117.0122838,0,0
3983,8*,1,22,62,42,31,11,52,Abstract_Concrete_6tasks_simseq_2seq_listtask_switchAB_fMRI,865002,12435,34152,4,13,133,A5,tools,6,8*,4858.4377561,4985.4508951,127.013139,0,0
2624,8*,1,22,62,42,32,11,52,Abstract_Concrete_6tasks_simseq_2seq_listtask_switchAB_fMRI,865002,12435,34152,4,14,134,B4,tools,6,8*,4858.4377561,4996.4485552,138.0107991,0,0
1712,7&,1,21,62,41,31,11,52,Abstract_Concrete_6tasks_simseq_2seq_listtask_switchAB_fMRI,865002,12435,34152,4,15,135,A2,vest,2,7&,4858.4377561,5006.4499533,148.0121972,0,0
1915,4$,1,21,61,42,32,12,51,Abstract_Concrete_6tasks_simseq_2seq_listtask_switchAB_fMRI,865002,12435,34152,4,16,136,B1,glasses,3,4$,4858.4377561,5015.4499973,157.0122412,0,0
1432,3#,1,21,61,41,32,12,51,Abstract_Concrete_6tasks_simseq_2seq_listtask_switchAB_fMRI,865002,12435,34152,4,17,137,A1,helmet,1,3#,4858.4377561,5024.4506018,166.0128457,0,0
2650,2@,1,22,62,41,32,12,51,Abstract_Concrete_6tasks_simseq_2seq_listtask_switchAB_fMRI,865002,12435,34152,4,18,138,B2,weapon,5,2@,4858.4377561,5033.4489763,175.0112202,0,0
2157,2@,1,22,62,41,31,11,52,Abstract_Concrete_6tasks_simseq_2seq_listtask_switchAB_fMRI,865002,12435,34152,4,19,139,A3,weapon,5,2@,4858.4377561,5043.4506698,185.012913699999,0,0
2376,3#,1,22,62,42,31,11,52,Abstract_Concrete_6tasks_simseq_2seq_listtask_switchAB_fMRI,865002,12435,34152,4,20,140,B3,helmet,1,3#,4858.4377561,5053.4513825,195.0136264,0,0
3939,8*,1,21,62,41,32,12,52,Abstract_Concrete_6tasks_simseq_2seq_listtask_switchAB_fMRI,865002,12435,34152,4,21,141,A5,tools,6,8*,4858.4377561,5063.4500724,205.0123163,0,0
1691,4$,1,21,61,42,31,11,52,Abstract_Concrete_6tasks_simseq_2seq_listtask_switchAB_fMRI,865002,12435,34152,4,22,142,B1,glasses,3,4$,4858.4377561,5074.4495288,216.0117727,0,0
2908,7&,1,22,61,42,32,11,52,Abstract_Concrete_6tasks_simseq_2seq_listtask_switchAB_fMRI,865002,12435,34152,4,23,143,A2,vest,2,7&,4858.4377561,5083.4497765,225.0120204,0,0
2904,2@,1,22,61,41,31,12,51,Abstract_Concrete_6tasks_simseq_2seq_listtask_switchAB_fMRI,865002,12435,34152,4,24,144,B2,weapon,5,2@,4858.4377561,5093.4504024,235.0126463,0,0
2916,4$,1,22,61,42,32,12,51,Abstract_Concrete_6tasks_simseq_2seq_listtask_switchAB_fMRI,865002,12435,34152,4,25,145,A4,glasses,3,4$,4858.4377561,5103.4492421,245.011486,0,0
1901,2@,1,22,62,41,32,11,52,Abstract_Concrete_6tasks_simseq_2seq_listtask_switchAB_fMRI,865002,12435,34152,4,26,146,B2,weapon,5,2@,4858.4377561,5113.4479238,255.0101677,0,0
4518,2@,1,22,62,42,31,11,51,Abstract_Concrete_6tasks_simseq_2seq_listtask_switchAB_fMRI,865002,12435,34152,4,27,147,A3,weapon,5,2@,4858.4377561,5122.4484877,264.0107316,0,0
2830,3#,1,21,61,42,32,12,52,Abstract_Concrete_6tasks_simseq_2seq_listtask_switchAB_fMRI,865002,12435,34152,4,28,148,B3,helmet,1,3#,4858.4377561,5134.4478602,276.0101041,0,0
3382,8*,1,21,61,41,31,12,52,Abstract_Concrete_6tasks_simseq_2seq_listtask_switchAB_fMRI,865002,12435,34152,4,29,149,A5,tools,6,8*,4858.4377561,5144.4503536,286.0125975,0,0
3365,7&,1,21,61,41,31,12,51,Abstract_Concrete_6tasks_simseq_2seq_listtask_switchAB_fMRI,865002,12435,34152,4,30,150,B5,vest,2,7&,4858.4377561,5155.4492764,297.0115203,0,0
3696,2@,1,21,61,41,31,12,51,Abstract_Concrete_6tasks_simseq_2seq_listtask_switchAB_fMRI,865002,12435,34152,4,31,151,A3,weapon,5,2@,4858.4377561,5166.4493543,308.0115982,0,0
3100,8*,1,21,61,41,31,12,52,Abstract_Concrete_6tasks_simseq_2seq_listtask_switchAB_fMRI,865002,12435,34152,4,32,152,B4,tools,6,8*,4858.4377561,5177.4479159,319.0101598,0,0
1891,3#,1,22,61,41,31,12,52,Abstract_Concrete_6tasks_simseq_2seq_listtask_switchAB_fMRI,865002,12435,34152,4,33,153,A1,helmet,1,3#,4858.4377561,5188.4497128,330.0119567,0,0
2543,7&,1,21,61,41,32,11,51,Abstract_Concrete_6tasks_simseq_2seq_listtask_switchAB_fMRI,865002,12435,34152,4,34,154,B5,vest,2,7&,4858.4377561,5197.4480203,339.0102642,0,0
1720,3#,1,22,62,41,31,12,52,Abstract_Concrete_6tasks_simseq_2seq_listtask_switchAB_fMRI,865002,12435,34152,4,35,155,A1,helmet,1,3#,4858.4377561,5207.4503879,349.0126318,0,0
4828,8*,1,21,61,41,32,11,51,Abstract_Concrete_6tasks_simseq_2seq_listtask_switchAB_fMRI,865002,12435,34152,4,36,156,B4,tools,6,8*,4858.4377561,5216.4501902,358.0124341,0,0
3020,4$,1,22,61,41,32,11,51,Abstract_Concrete_6tasks_simseq_2seq_listtask_switchAB_fMRI,865002,12435,34152,4,37,157,A4,glasses,3,4$,4858.4377561,5228.4485882,370.0108321,0,0
3550,7&,1,22,62,42,31,11,51,Abstract_Concrete_6tasks_simseq_2seq_listtask_switchAB_fMRI,865002,12435,34152,4,38,158,B5,vest,2,7&,4858.4377561,5239.4499648,381.0122087,0,0
2852,4$,1,22,62,42,32,12,51,Abstract_Concrete_6tasks_simseq_2seq_listtask_switchAB_fMRI,865002,12435,34152,4,39,159,A4,glasses,3,4$,4858.4377561,5250.4489717,392.0112156,0,0
1451,7&,1,21,61,42,31,11,51,Abstract_Concrete_6tasks_simseq_2seq_listtask_switchAB_fMRI,865002,12435,34152,4,40,160,B5,vest,2,7&,4858.4377561,5260.4479276,402.0101715,0,0
4126,2@,1,22,61,41,31,11,51,Abstract_Concrete_6tasks_simseq_2seq_listtask_switchAB_fMRI,865002,12435,34152,5,1,161,B2,weapon,5,2@,5309.429807,5317.4401031,8.01029609999932,0,0
2229,8*,1,22,61,41,32,12,52,Abstract_Concrete_6tasks_simseq_2seq_listtask_switchAB_fMRI,865002,12435,34152,5,2,162,A5,tools,6,8*,5309.429807,5329.4424591,20.0126520999993,0,0
2693,4$,1,22,62,41,32,11,51,Abstract_Concrete_6tasks_simseq_2seq_listtask_switchAB_fMRI,865002,12435,34152,5,3,163,B1,glasses,3,4$,5309.429807,5339.4437135,30.0139064999994,0,0
1576,7&,1,21,61,42,32,11,52,Abstract_Concrete_6tasks_simseq_2seq_listtask_switchAB_fMRI,865002,12435,34152,5,4,164,A2,vest,2,7&,5309.429807,5349.4404387,40.0106317,0,0
1376,4$,1,22,61,41,32,11,51,Abstract_Concrete_6tasks_simseq_2seq_listtask_switchAB_fMRI,865002,12435,34152,5,5,165,B1,glasses,3,4$,5309.429807,5358.4429182,49.0131111999999,0,0
2343,2@,1,21,61,41,32,11,51,Abstract_Concrete_6tasks_simseq_2seq_listtask_switchAB_fMRI,865002,12435,34152,5,6,166,A3,weapon,5,2@,5309.429807,5367.4414706,58.0116635999993,0,0
1266,4$,1,22,61,41,32,12,52,Abstract_Concrete_6tasks_simseq_2seq_listtask_switchAB_fMRI,865002,12435,34152,5,7,167,B1,glasses,3,4$,5309.429807,5377.4410171,68.0112100999995,0,0
2826,8*,1,22,62,41,32,12,51,Abstract_Concrete_6tasks_simseq_2seq_listtask_switchAB_fMRI,865002,12435,34152,5,8,168,A5,tools,6,8*,5309.429807,5386.4420903,77.0122832999996,0,0
2019,2@,1,21,62,41,31,11,51,Abstract_Concrete_6tasks_simseq_2seq_listtask_switchAB_fMRI,865002,12435,34152,5,9,169,B2,weapon,5,2@,5309.429807,5396.4422603,87.0124532999998,0,0
2482,4$,1,21,61,41,31,11,51,Abstract_Concrete_6tasks_simseq_2seq_listtask_switchAB_fMRI,865002,12435,34152,5,10,170,A4,glasses,3,4$,5309.429807,5406.4429278,97.0131207999993,0,0
2333,2@,1,22,61,41,31,11,52,Abstract_Concrete_6tasks_simseq_2seq_listtask_switchAB_fMRI,865002,12435,34152,5,11,171,B2,weapon,5,2@,5309.429807,5416.4409072,107.011100199999,0,0
1290,3#,1,22,62,42,32,12,51,Abstract_Concrete_6tasks_simseq_2seq_listtask_switchAB_fMRI,865002,12435,34152,5,12,172,A1,helmet,1,3#,5309.429807,5426.4432322,117.0134252,0,0
3137,3#,1,22,62,41,31,12,52,Abstract_Concrete_6tasks_simseq_2seq_listtask_switchAB_fMRI,865002,12435,34152,5,13,173,B3,helmet,1,3#,5309.429807,5435.4428052,126.0129982,0,0
1610,8*,1,21,62,42,32,11,51,Abstract_Concrete_6tasks_simseq_2seq_listtask_switchAB_fMRI,865002,12435,34152,5,14,174,A5,tools,6,8*,5309.429807,5446.4423253,137.0125183,0,0
1906,7&,1,22,61,41,31,12,52,Abstract_Concrete_6tasks_simseq_2seq_listtask_switchAB_fMRI,865002,12435,34152,5,15,175,B5,vest,2,7&,5309.429807,5455.4415363,146.011729299999,0,0
1417,3#,1,21,61,42,31,11,52,Abstract_Concrete_6tasks_simseq_2seq_listtask_switchAB_fMRI,865002,12435,34152,5,16,176,A1,helmet,1,3#,5309.429807,5464.4408679,155.011060899999,0,0
1762,7&,1,21,61,41,32,12,51,Abstract_Concrete_6tasks_simseq_2seq_listtask_switchAB_fMRI,865002,12435,34152,5,17,177,B5,vest,2,7&,5309.429807,5473.441219,164.011412,0,0
2231,2@,1,21,61,42,31,12,51,Abstract_Concrete_6tasks_simseq_2seq_listtask_switchAB_fMRI,865002,12435,34152,5,18,178,A3,weapon,5,2@,5309.429807,5482.4414226,173.011615599999,0,0
1519,7&,1,21,62,41,31,11,51,Abstract_Concrete_6tasks_simseq_2seq_listtask_switchAB_fMRI,865002,12435,34152,5,19,179,B5,vest,2,7&,5309.429807,5492.4408239,183.0110169,0,0
1227,3#,1,21,61,42,31,11,52,Abstract_Concrete_6tasks_simseq_2seq_listtask_switchAB_fMRI,865002,12435,34152,5,20,180,A1,helmet,1,3#,5309.429807,5501.4424517,192.012644699999,0,0
3895,8*,1,22,62,41,31,11,52,Abstract_Concrete_6tasks_simseq_2seq_listtask_switchAB_fMRI,865002,12435,34152,5,21,181,B4,tools,6,8*,5309.429807,5510.4440929,201.0142859,0,0
1564,3#,1,22,62,42,31,12,51,Abstract_Concrete_6tasks_simseq_2seq_listtask_switchAB_fMRI,865002,12435,34152,5,22,182,A1,helmet,1,3#,5309.429807,5521.4410689,212.011261899999,0,0
2056,7&,1,22,61,42,32,12,51,Abstract_Concrete_6tasks_simseq_2seq_listtask_switchAB_fMRI,865002,12435,34152,5,23,183,B5,vest,2,7&,5309.429807,5530.4435343,221.013727299999,0,0
1758,7&,1,21,61,42,32,11,51,Abstract_Concrete_6tasks_simseq_2seq_listtask_switchAB_fMRI,865002,12435,34152,5,24,184,A2,vest,2,7&,5309.429807,5540.4424341,231.0126271,0,0
4698,3#,1,21,62,42,31,12,52,Abstract_Concrete_6tasks_simseq_2seq_listtask_switchAB_fMRI,865002,12435,34152,5,25,185,B3,helmet,1,3#,5309.429807,5549.4424603,240.012653299999,0,0
1470,2@,1,21,62,42,32,12,51,Abstract_Concrete_6tasks_simseq_2seq_listtask_switchAB_fMRI,865002,12435,34152,5,26,186,A3,weapon,5,2@,5309.429807,5561.4431185,252.0133115,0,0
1804,4$,1,21,61,41,31,11,52,Abstract_Concrete_6tasks_simseq_2seq_listtask_switchAB_fMRI,865002,12435,34152,5,27,187,B1,glasses,3,4$,5309.429807,5570.4421064,261.012299399999,0,0
2652,4$,1,21,61,41,32,12,52,Abstract_Concrete_6tasks_simseq_2seq_listtask_switchAB_fMRI,865002,12435,34152,5,28,188,A4,glasses,3,4$,5309.429807,5579.4411823,270.0113753,0,0
1752,3#,1,21,62,41,32,12,51,Abstract_Concrete_6tasks_simseq_2seq_listtask_switchAB_fMRI,865002,12435,34152,5,29,189,B3,helmet,1,3#,5309.429807,5589.441687,280.011879999999,0,0
2933,2@,1,22,62,42,32,11,52,Abstract_Concrete_6tasks_simseq_2seq_listtask_switchAB_fMRI,865002,12435,34152,5,30,190,A3,weapon,5,2@,5309.429807,5598.4413079,289.011500899999,0,0
2829,3#,1,21,62,42,32,11,51,Abstract_Concrete_6tasks_simseq_2seq_listtask_switchAB_fMRI,865002,12435,34152,5,31,191,B3,helmet,1,3#,5309.429807,5608.4414556,299.0116486,0,0
1715,4$,1,21,62,41,32,11,51,Abstract_Concrete_6tasks_simseq_2seq_listtask_switchAB_fMRI,865002,12435,34152,5,32,192,A4,glasses,3,4$,5309.429807,5618.4408892,309.0110822,0,0
2449,8*,1,22,61,42,31,11,52,Abstract_Concrete_6tasks_simseq_2seq_listtask_switchAB_fMRI,865002,12435,34152,5,33,193,B4,tools,6,8*,5309.429807,5627.4424779,318.0126709,0,0
2270,8*,1,21,61,41,31,11,52,Abstract_Concrete_6tasks_simseq_2seq_listtask_switchAB_fMRI,865002,12435,34152,5,34,194,A5,tools,6,8*,5309.429807,5637.4412802,328.011473199999,0,0
2477,2@,1,21,61,41,31,11,52,Abstract_Concrete_6tasks_simseq_2seq_listtask_switchAB_fMRI,865002,12435,34152,5,35,195,B2,weapon,5,2@,5309.429807,5647.4415133,338.0117063,0,0
2203,7&,1,22,62,41,31,11,52,Abstract_Concrete_6tasks_simseq_2seq_listtask_switchAB_fMRI,865002,12435,34152,5,36,196,A2,vest,2,7&,5309.429807,5657.4411656,348.0113586,0,0
2505,8*,1,22,62,41,32,12,51,Abstract_Concrete_6tasks_simseq_2seq_listtask_switchAB_fMRI,865002,12435,34152,5,37,197,B4,tools,6,8*,5309.429807,5667.4431055,358.013298499999,0,0
5373,4$,1,21,62,42,31,11,51,Abstract_Concrete_6tasks_simseq_2seq_listtask_switchAB_fMRI,865002,12435,34152,5,38,198,A4,glasses,3,4$,5309.429807,5677.4428446,368.0130376,0,0
1403,8*,1,21,62,42,32,12,51,Abstract_Concrete_6tasks_simseq_2seq_listtask_switchAB_fMRI,865002,12435,34152,5,39,199,B4,tools,6,8*,5309.429807,5690.4431462,381.0133392,0,0
1510,7&,1,22,62,42,32,12,52,Abstract_Concrete_6tasks_simseq_2seq_listtask_switchAB_fMRI,865002,12435,34152,5,40,200,A2,vest,2,7&,5309.429807,5699.4428077,390.0130007,0,0
4160,8*,1,21,62,41,31,11,52,Abstract_Concrete_6tasks_simseq_2seq_listtask_switchAB_fMRI,865002,12435,34152,6,1,201,A5,tools,6,8*,5741.8955892,5749.9063178,8.01072859999931,0,0
2092,3#,1,22,61,41,32,11,52,Abstract_Concrete_6tasks_simseq_2seq_listtask_switchAB_fMRI,865002,12435,34152,6,2,202,B3,helmet,1,3#,5741.8955892,5761.9063154,20.0107261999992,0,0
1728,8*,1,22,62,41,32,11,51,Abstract_Concrete_6tasks_simseq_2seq_listtask_switchAB_fMRI,865002,12435,34152,6,3,203,A5,tools,6,8*,5741.8955892,5771.9071461,30.0115569,0,0
1507,4$,1,22,61,41,32,11,52,Abstract_Concrete_6tasks_simseq_2seq_listtask_switchAB_fMRI,865002,12435,34152,6,4,204,B1,glasses,3,4$,5741.8955892,5780.9088771,39.0132878999993,0,0
1883,4$,1,21,61,42,32,12,52,Abstract_Concrete_6tasks_simseq_2seq_listtask_switchAB_fMRI,865002,12435,34152,6,5,205,A4,glasses,3,4$,5741.8955892,5789.9094968,48.0139075999996,0,0
1489,3#,1,22,62,41,32,11,52,Abstract_Concrete_6tasks_simseq_2seq_listtask_switchAB_fMRI,865002,12435,34152,6,6,206,B3,helmet,1,3#,5741.8955892,5798.9090852,57.0134959999996,0,0
2547,2@,1,21,61,41,32,12,51,Abstract_Concrete_6tasks_simseq_2seq_listtask_switchAB_fMRI,865002,12435,34152,6,7,207,A3,weapon,5,2@,5741.8955892,5807.9074963,66.0119070999999,0,0
3101,8*,1,22,61,42,31,11,51,Abstract_Concrete_6tasks_simseq_2seq_listtask_switchAB_fMRI,865002,12435,34152,6,8,208,B4,tools,6,8*,5741.8955892,5817.9069372,76.011348,0,0
2198,3#,1,21,61,42,32,11,52,Abstract_Concrete_6tasks_simseq_2seq_listtask_switchAB_fMRI,865002,12435,34152,6,9,209,A1,helmet,1,3#,5741.8955892,5828.9088997,87.0133104999995,0,0
3302,8*,1,21,61,41,31,11,51,Abstract_Concrete_6tasks_simseq_2seq_listtask_switchAB_fMRI,865002,12435,34152,6,10,210,B4,tools,6,8*,5741.8955892,5838.9112898,97.0157005999999,0,0
3388,4$,1,21,62,42,31,11,51,Abstract_Concrete_6tasks_simseq_2seq_listtask_switchAB_fMRI,865002,12435,34152,6,11,211,A4,glasses,3,4$,5741.8955892,5849.9076852,108.012095999999,0,0
2336,7&,1,22,61,41,32,11,52,Abstract_Concrete_6tasks_simseq_2seq_listtask_switchAB_fMRI,865002,12435,34152,6,12,212,B5,vest,2,7&,5741.8955892,5860.9074502,119.011861,0,0
3538,2@,1,22,61,41,31,11,52,Abstract_Concrete_6tasks_simseq_2seq_listtask_switchAB_fMRI,865002,12435,34152,6,13,213,A3,weapon,5,2@,5741.8955892,5870.9087591,129.013169899999,0,0
3929,3#,1,22,61,42,32,11,52,Abstract_Concrete_6tasks_simseq_2seq_listtask_switchAB_fMRI,865002,12435,34152,6,14,214,B3,helmet,1,3#,5741.8955892,5881.907416,140.0118268,0,0
2197,8*,1,22,61,41,32,11,51,Abstract_Concrete_6tasks_simseq_2seq_listtask_switchAB_fMRI,865002,12435,34152,6,15,215,A5,tools,6,8*,5741.8955892,5892.9074125,151.011823299999,0,0
6673,7&,1,22,61,42,32,11,51,Abstract_Concrete_6tasks_simseq_2seq_listtask_switchAB_fMRI,865002,12435,34152,6,16,216,B5,vest,2,7&,5741.8955892,5902.9081099,161.0125207,0,0
2774,4$,1,21,61,42,31,12,51,Abstract_Concrete_6tasks_simseq_2seq_listtask_switchAB_fMRI,865002,12435,34152,6,17,217,A4,glasses,3,4$,5741.8955892,5916.9075327,175.0119435,0,0
1776,4$,1,21,61,42,32,12,52,Abstract_Concrete_6tasks_simseq_2seq_listtask_switchAB_fMRI,865002,12435,34152,6,18,218,B1,glasses,3,4$,5741.8955892,5926.9079251,185.0123359,0,0
3500,2@,1,21,62,42,31,11,52,Abstract_Concrete_6tasks_simseq_2seq_listtask_switchAB_fMRI,865002,12435,34152,6,19,219,A3,weapon,5,2@,5741.8955892,5935.9064662,194.010877,0,0
2154,3#,1,21,61,41,32,11,51,Abstract_Concrete_6tasks_simseq_2seq_listtask_switchAB_fMRI,865002,12435,34152,6,20,220,B3,helmet,1,3#,5741.8955892,5946.9071041,205.011514899999,0,0
2295,7&,1,22,62,41,32,11,51,Abstract_Concrete_6tasks_simseq_2seq_listtask_switchAB_fMRI,865002,12435,34152,6,21,221,A2,vest,2,7&,5741.8955892,5956.9074535,215.0118643,0,0
2728,7&,1,22,61,41,31,11,52,Abstract_Concrete_6tasks_simseq_2seq_listtask_switchAB_fMRI,865002,12435,34152,6,22,222,B5,vest,2,7&,5741.8955892,5966.9073897,225.011800499999,0,0
1191,7&,1,21,61,41,32,12,51,Abstract_Concrete_6tasks_simseq_2seq_listtask_switchAB_fMRI,865002,12435,34152,6,23,223,A2,vest,2,7&,5741.8955892,5976.9080773,235.012488099999,0,0
3597,2@,1,21,62,41,31,12,51,Abstract_Concrete_6tasks_simseq_2seq_listtask_switchAB_fMRI,865002,12435,34152,6,24,224,B2,weapon,5,2@,5741.8955892,5985.9085792,244.012989999999,0,0
3041,2@,1,21,62,42,31,12,52,Abstract_Concrete_6tasks_simseq_2seq_listtask_switchAB_fMRI,865002,12435,34152,6,25,225,A3,weapon,5,2@,5741.8955892,5996.9062155,255.0106263,0,0
1886,2@,1,21,62,41,31,11,51,Abstract_Concrete_6tasks_simseq_2seq_listtask_switchAB_fMRI,865002,12435,34152,6,26,226,B2,weapon,5,2@,5741.8955892,6007.9073074,266.011718199999,0,0
2072,7&,1,22,62,41,31,12,51,Abstract_Concrete_6tasks_simseq_2seq_listtask_switchAB_fMRI,865002,12435,34152,6,27,227,A2,vest,2,7&,5741.8955892,6016.9066097,275.0110205,0,0
3232,8*,1,21,61,42,32,11,51,Abstract_Concrete_6tasks_simseq_2seq_listtask_switchAB_fMRI,865002,12435,34152,6,28,228,B4,tools,6,8*,5741.8955892,6026.9076002,285.012011,0,0
3325,8*,1,22,62,41,31,11,52,Abstract_Concrete_6tasks_simseq_2seq_listtask_switchAB_fMRI,865002,12435,34152,6,29,229,A5,tools,6,8*,5741.8955892,6037.9091111,296.013521899999,0,0
2417,7&,1,22,61,42,32,11,52,Abstract_Concrete_6tasks_simseq_2seq_listtask_switchAB_fMRI,865002,12435,34152,6,30,230,B5,vest,2,7&,5741.8955892,6048.9090241,307.0134349,0,0
3127,8*,0,22,61,42,32,12,52,Abstract_Concrete_6tasks_simseq_2seq_listtask_switchAB_fMRI,865002,12435,34152,6,31,231,A4,glasses,3,4$,5741.8955892,6058.9063395,317.0107503,6062.0497387,320.154149499999
2931,2@,1,21,61,42,31,11,51,Abstract_Concrete_6tasks_simseq_2seq_listtask_switchAB_fMRI,865002,12435,34152,6,32,232,B2,weapon,5,2@,5741.8955892,6069.905731,328.010141799999,0,0
1754,3#,1,22,61,42,32,12,52,Abstract_Concrete_6tasks_simseq_2seq_listtask_switchAB_fMRI,865002,12435,34152,6,33,233,A1,helmet,1,3#,5741.8955892,6079.9080548,338.0124656,0,0
3004,2@,1,21,61,42,31,11,52,Abstract_Concrete_6tasks_simseq_2seq_listtask_switchAB_fMRI,865002,12435,34152,6,34,234,B2,weapon,5,2@,5741.8955892,6088.9085652,347.012976,0,0
1165,3#,1,21,61,42,32,12,52,Abstract_Concrete_6tasks_simseq_2seq_listtask_switchAB_fMRI,865002,12435,34152,6,35,235,A1,helmet,1,3#,5741.8955892,6099.9072429,358.011653699999,0,0
4113,8*,1,22,62,42,32,12,51,Abstract_Concrete_6tasks_simseq_2seq_listtask_switchAB_fMRI,865002,12435,34152,6,36,236,B4,tools,6,8*,5741.8955892,6108.9067793,367.0111901,0,0
1676,7&,1,22,61,42,32,12,52,Abstract_Concrete_6tasks_simseq_2seq_listtask_switchAB_fMRI,865002,12435,34152,6,37,237,A2,vest,2,7&,5741.8955892,6120.9094443,379.0138551,0,0
1953,4$,1,21,61,41,32,12,51,Abstract_Concrete_6tasks_simseq_2seq_listtask_switchAB_fMRI,865002,12435,34152,6,38,238,B1,glasses,3,4$,5741.8955892,6129.9068681,388.0112789,0,0
2756,3#,1,21,61,42,31,12,51,Abstract_Concrete_6tasks_simseq_2seq_listtask_switchAB_fMRI,865002,12435,34152,6,39,239,A1,helmet,1,3#,5741.8955892,6138.9064873,397.010898099999,0,0
1483,4$,1,22,61,42,31,11,51,Abstract_Concrete_6tasks_simseq_2seq_listtask_switchAB_fMRI,865002,12435,34152,6,40,240,B1,glasses,3,4$,5741.8955892,6148.9067483,407.0111591,0,0
