rt1,resp1,correct1,features_1,features_2,features_3,features_4,features_5,features_6,ExpName,subNo,seqA,seqB,block,trial,trialnum,cuetype,task,subtaskcode,corr_resp1,onsetTime_s,onsetTime_cue,onset_cue,onsetTime_cue_fb,onset_cue_fb
2860,4$,1,62,11,32,51,42,21,Abstract_Concrete_6tasks_simseq_2seq_listtask_switchAB_fMRI,865258,41253,52431,1,1,1,B3,weapon,5,4$,4644.2187131,4652.2289538,8.0102407000004,0,0
0,,0,62,12,31,51,42,22,Abstract_Concrete_6tasks_simseq_2seq_listtask_switchAB_fMRI,865258,41253,52431,1,2,2,A3,vest,2,2@,4644.2187131,4662.2287682,18.0100550999996,4671.258918,27.0402049000004
2995,9(,1,62,12,32,51,42,21,Abstract_Concrete_6tasks_simseq_2seq_listtask_switchAB_fMRI,865258,41253,52431,1,3,3,B4,glasses,3,9(,4644.2187131,4679.2323154,35.0136022999995,0,0
3981,7&,1,61,12,32,51,41,21,Abstract_Concrete_6tasks_simseq_2seq_listtask_switchAB_fMRI,865258,41253,52431,1,4,4,A4,tools,6,7&,4644.2187131,4690.2317102,46.0129970999997,0,0
1997,7&,1,62,12,32,51,42,22,Abstract_Concrete_6tasks_simseq_2seq_listtask_switchAB_fMRI,865258,41253,52431,1,5,5,B1,tools,6,7&,4644.2187131,4701.2310289,57.0123157999997,0,0
2240,8*,1,62,12,31,52,41,21,Abstract_Concrete_6tasks_simseq_2seq_listtask_switchAB_fMRI,865258,41253,52431,1,6,6,A2,helmet,1,8*,4644.2187131,4711.2316122,67.0128991000001,0,0
2187,4$,1,61,11,31,51,41,22,Abstract_Concrete_6tasks_simseq_2seq_listtask_switchAB_fMRI,865258,41253,52431,1,7,7,B3,weapon,5,4$,4644.2187131,4721.2312928,77.0125797000001,0,0
2119,8*,1,61,12,31,51,41,21,Abstract_Concrete_6tasks_simseq_2seq_listtask_switchAB_fMRI,865258,41253,52431,1,8,8,A2,helmet,1,8*,4644.2187131,4731.2302413,87.0115281999997,0,0
1697,2@,1,61,11,32,51,42,22,Abstract_Concrete_6tasks_simseq_2seq_listtask_switchAB_fMRI,865258,41253,52431,1,9,9,B2,vest,2,2@,4644.2187131,4741.2312155,97.0125023999999,0,0
4822,2@,1,62,11,32,52,42,21,Abstract_Concrete_6tasks_simseq_2seq_listtask_switchAB_fMRI,865258,41253,52431,1,10,10,A3,vest,2,2@,4644.2187131,4750.2338798,106.0151667,0,0
1805,2@,1,62,11,32,52,41,22,Abstract_Concrete_6tasks_simseq_2seq_listtask_switchAB_fMRI,865258,41253,52431,1,11,11,B2,vest,2,2@,4644.2187131,4762.2352413,118.0165282,0,0
4806,7&,1,62,11,31,52,41,21,Abstract_Concrete_6tasks_simseq_2seq_listtask_switchAB_fMRI,865258,41253,52431,1,12,12,A4,tools,6,7&,4644.2187131,4771.2302424,127.0115293,0,0
3141,8*,1,61,12,32,51,42,22,Abstract_Concrete_6tasks_simseq_2seq_listtask_switchAB_fMRI,865258,41253,52431,1,13,13,B5,helmet,1,8*,4644.2187131,4783.2300527,139.0113396,0,0
3233,9(,1,61,12,31,51,41,22,Abstract_Concrete_6tasks_simseq_2seq_listtask_switchAB_fMRI,865258,41253,52431,1,14,14,A5,glasses,3,9(,4644.2187131,4794.2311497,150.0124366,0,0
1650,7&,1,62,12,32,51,41,21,Abstract_Concrete_6tasks_simseq_2seq_listtask_switchAB_fMRI,865258,41253,52431,1,15,15,B1,tools,6,7&,4644.2187131,4805.2324388,161.0137257,0,0
1789,2@,1,62,12,32,51,42,21,Abstract_Concrete_6tasks_simseq_2seq_listtask_switchAB_fMRI,865258,41253,52431,1,16,16,A3,vest,2,2@,4644.2187131,4814.2307258,170.0120127,0,0
3533,2@,0,62,11,32,51,42,21,Abstract_Concrete_6tasks_simseq_2seq_listtask_switchAB_fMRI,865258,41253,52431,1,17,17,B3,weapon,5,4$,4644.2187131,4823.2305358,179.0118227,4826.7774233,182.5587102
2337,4$,1,62,11,32,51,42,22,Abstract_Concrete_6tasks_simseq_2seq_listtask_switchAB_fMRI,865258,41253,52431,1,18,18,A1,weapon,5,4$,4644.2187131,4834.2302465,190.0115334,0,0
2810,9(,1,61,12,31,52,41,22,Abstract_Concrete_6tasks_simseq_2seq_listtask_switchAB_fMRI,865258,41253,52431,1,19,19,B4,glasses,3,9(,4644.2187131,4844.2301499,200.0114368,0,0
4303,8*,1,61,11,32,51,41,21,Abstract_Concrete_6tasks_simseq_2seq_listtask_switchAB_fMRI,865258,41253,52431,1,20,20,A2,helmet,1,8*,4644.2187131,4854.2285943,210.0098812,0,0
2368,8*,1,62,11,32,52,41,21,Abstract_Concrete_6tasks_simseq_2seq_listtask_switchAB_fMRI,865258,41253,52431,1,21,21,B5,helmet,1,8*,4644.2187131,4866.2305467,222.0118336,0,0
1875,4$,1,62,11,31,51,41,22,Abstract_Concrete_6tasks_simseq_2seq_listtask_switchAB_fMRI,865258,41253,52431,1,22,22,A1,weapon,5,4$,4644.2187131,4876.2306819,232.0119688,0,0
1892,2@,1,62,12,32,52,41,21,Abstract_Concrete_6tasks_simseq_2seq_listtask_switchAB_fMRI,865258,41253,52431,1,23,23,B2,vest,2,2@,4644.2187131,4885.2302967,241.0115836,0,0
2019,8*,1,61,12,32,51,41,21,Abstract_Concrete_6tasks_simseq_2seq_listtask_switchAB_fMRI,865258,41253,52431,1,24,24,A2,helmet,1,8*,4644.2187131,4894.2303973,250.0116842,0,0
1560,9(,1,62,12,32,52,41,21,Abstract_Concrete_6tasks_simseq_2seq_listtask_switchAB_fMRI,865258,41253,52431,1,25,25,B4,glasses,3,9(,4644.2187131,4904.2324022,260.0136891,0,0
3913,7&,1,62,12,32,51,42,22,Abstract_Concrete_6tasks_simseq_2seq_listtask_switchAB_fMRI,865258,41253,52431,1,26,26,A4,tools,6,7&,4644.2187131,4913.2301095,269.0113964,0,0
1638,9(,1,62,11,31,52,42,21,Abstract_Concrete_6tasks_simseq_2seq_listtask_switchAB_fMRI,865258,41253,52431,1,27,27,B4,glasses,3,9(,4644.2187131,4924.2300278,280.0113147,0,0
1463,2@,1,61,12,31,51,42,21,Abstract_Concrete_6tasks_simseq_2seq_listtask_switchAB_fMRI,865258,41253,52431,1,28,28,A3,vest,2,2@,4644.2187131,4933.2314046,289.0126915,0,0
1433,9(,0,62,12,32,52,42,21,Abstract_Concrete_6tasks_simseq_2seq_listtask_switchAB_fMRI,865258,41253,52431,1,29,29,B5,helmet,1,8*,4644.2187131,4942.2324136,298.0137005,4943.6783722,299.4596591
1554,4$,1,61,12,32,51,42,22,Abstract_Concrete_6tasks_simseq_2seq_listtask_switchAB_fMRI,865258,41253,52431,1,30,30,A1,weapon,5,4$,4644.2187131,4951.2289038,307.0101907,0,0
3751,4$,1,62,12,31,52,41,21,Abstract_Concrete_6tasks_simseq_2seq_listtask_switchAB_fMRI,865258,41253,52431,1,31,31,B3,weapon,5,4$,4644.2187131,4960.2310648,316.0123517,0,0
2368,9(,1,61,11,32,52,41,22,Abstract_Concrete_6tasks_simseq_2seq_listtask_switchAB_fMRI,865258,41253,52431,1,32,32,A5,glasses,3,9(,4644.2187131,4971.2302336,327.0115205,0,0
1468,8*,1,61,12,31,51,42,21,Abstract_Concrete_6tasks_simseq_2seq_listtask_switchAB_fMRI,865258,41253,52431,1,33,33,B5,helmet,1,8*,4644.2187131,4981.2306816,337.0119685,0,0
2628,9(,1,61,11,32,51,41,21,Abstract_Concrete_6tasks_simseq_2seq_listtask_switchAB_fMRI,865258,41253,52431,1,34,34,A5,glasses,3,9(,4644.2187131,4990.2302232,346.0115101,0,0
2457,7&,1,61,11,31,52,41,22,Abstract_Concrete_6tasks_simseq_2seq_listtask_switchAB_fMRI,865258,41253,52431,1,35,35,B1,tools,6,7&,4644.2187131,5000.2299445,356.0112314,0,0
2977,7&,1,62,12,31,51,42,22,Abstract_Concrete_6tasks_simseq_2seq_listtask_switchAB_fMRI,865258,41253,52431,1,36,36,A4,tools,6,7&,4644.2187131,5010.230241,366.0115279,0,0
2535,7&,1,62,12,31,51,42,21,Abstract_Concrete_6tasks_simseq_2seq_listtask_switchAB_fMRI,865258,41253,52431,1,37,37,B1,tools,6,7&,4644.2187131,5020.2299061,376.011193,0,0
1600,4$,1,62,12,31,52,41,21,Abstract_Concrete_6tasks_simseq_2seq_listtask_switchAB_fMRI,865258,41253,52431,1,38,38,A1,weapon,5,4$,4644.2187131,5030.2319363,386.0132232,0,0
1555,2@,1,62,12,32,52,42,21,Abstract_Concrete_6tasks_simseq_2seq_listtask_switchAB_fMRI,865258,41253,52431,1,39,39,B2,vest,2,2@,4644.2187131,5039.2301951,395.011482,0,0
1514,9(,1,61,11,32,52,42,22,Abstract_Concrete_6tasks_simseq_2seq_listtask_switchAB_fMRI,865258,41253,52431,1,40,40,A5,glasses,3,9(,4644.2187131,5048.2293772,404.0106641,0,0
2186,9(,1,62,12,32,52,42,22,Abstract_Concrete_6tasks_simseq_2seq_listtask_switchAB_fMRI,865258,41253,52431,2,1,41,B4,glasses,3,9(,5117.3883776,5125.3996114,8.0112337999999,0,0
1425,4$,1,61,12,32,52,42,22,Abstract_Concrete_6tasks_simseq_2seq_listtask_switchAB_fMRI,865258,41253,52431,2,2,42,A1,weapon,5,4$,5117.3883776,5135.3999941,18.0116164999999,0,0
1383,7&,1,62,12,31,51,41,21,Abstract_Concrete_6tasks_simseq_2seq_listtask_switchAB_fMRI,865258,41253,52431,2,3,43,B1,tools,6,7&,5117.3883776,5144.4004021,27.0120244999998,0,0
0,,0,61,11,32,52,42,21,Abstract_Concrete_6tasks_simseq_2seq_listtask_switchAB_fMRI,865258,41253,52431,2,4,44,A4,tools,6,7&,5117.3883776,5153.4020435,36.0136659,5162.4574242,45.0690465999996
1737,4$,1,61,11,32,52,42,22,Abstract_Concrete_6tasks_simseq_2seq_listtask_switchAB_fMRI,865258,41253,52431,2,5,45,B3,weapon,5,4$,5117.3883776,5170.4006186,53.0122409999994,0,0
2101,2@,1,62,11,31,51,41,22,Abstract_Concrete_6tasks_simseq_2seq_listtask_switchAB_fMRI,865258,41253,52431,2,6,46,A3,vest,2,2@,5117.3883776,5179.4022219,62.0138442999996,0,0
1300,9(,1,61,11,32,52,42,21,Abstract_Concrete_6tasks_simseq_2seq_listtask_switchAB_fMRI,865258,41253,52431,2,7,47,B4,glasses,3,9(,5117.3883776,5189.4000096,72.0116319999997,0,0
1079,2@,1,61,12,31,51,42,21,Abstract_Concrete_6tasks_simseq_2seq_listtask_switchAB_fMRI,865258,41253,52431,2,8,48,A3,vest,2,2@,5117.3883776,5198.4020927,81.0137150999999,0,0
2444,7&,1,61,12,31,51,42,21,Abstract_Concrete_6tasks_simseq_2seq_listtask_switchAB_fMRI,865258,41253,52431,2,9,49,B1,tools,6,7&,5117.3883776,5207.400687,90.0123094,0,0
2502,8*,1,61,11,31,52,42,22,Abstract_Concrete_6tasks_simseq_2seq_listtask_switchAB_fMRI,865258,41253,52431,2,10,50,A2,helmet,1,8*,5117.3883776,5217.4009554,100.0125778,0,0
1693,7&,1,61,11,31,51,41,21,Abstract_Concrete_6tasks_simseq_2seq_listtask_switchAB_fMRI,865258,41253,52431,2,11,51,B1,tools,6,7&,5117.3883776,5227.4017864,110.0134088,0,0
1984,8*,0,62,11,31,51,41,21,Abstract_Concrete_6tasks_simseq_2seq_listtask_switchAB_fMRI,865258,41253,52431,2,12,52,A5,glasses,3,9(,5117.3883776,5236.4005066,119.012129,5238.3968408,121.0084632
1492,8*,1,62,12,31,52,41,21,Abstract_Concrete_6tasks_simseq_2seq_listtask_switchAB_fMRI,865258,41253,52431,2,13,53,B5,helmet,1,8*,5117.3883776,5246.4004926,129.012115,0,0
955,8*,1,61,12,31,52,42,22,Abstract_Concrete_6tasks_simseq_2seq_listtask_switchAB_fMRI,865258,41253,52431,2,14,54,A2,helmet,1,8*,5117.3883776,5255.4001459,138.0117683,0,0
1585,2@,1,61,11,31,51,41,21,Abstract_Concrete_6tasks_simseq_2seq_listtask_switchAB_fMRI,865258,41253,52431,2,15,55,B2,vest,2,2@,5117.3883776,5263.4005862,146.0122086,0,0
2196,9(,1,62,12,31,51,41,21,Abstract_Concrete_6tasks_simseq_2seq_listtask_switchAB_fMRI,865258,41253,52431,2,16,56,A5,glasses,3,9(,5117.3883776,5272.4006379,155.0122603,0,0
1757,7&,1,61,11,31,52,41,21,Abstract_Concrete_6tasks_simseq_2seq_listtask_switchAB_fMRI,865258,41253,52431,2,17,57,B1,tools,6,7&,5117.3883776,5282.4009467,165.012569099999,0,0
2720,2@,1,61,12,31,51,41,21,Abstract_Concrete_6tasks_simseq_2seq_listtask_switchAB_fMRI,865258,41253,52431,2,18,58,A3,vest,2,2@,5117.3883776,5291.4000868,174.0117092,0,0
2031,8*,1,62,11,32,52,41,22,Abstract_Concrete_6tasks_simseq_2seq_listtask_switchAB_fMRI,865258,41253,52431,2,19,59,B5,helmet,1,8*,5117.3883776,5301.4003475,184.0119699,0,0
2188,2@,1,61,11,32,51,41,21,Abstract_Concrete_6tasks_simseq_2seq_listtask_switchAB_fMRI,865258,41253,52431,2,20,60,A3,vest,2,2@,5117.3883776,5311.4013067,194.012929099999,0,0
1152,9(,1,61,12,31,51,41,21,Abstract_Concrete_6tasks_simseq_2seq_listtask_switchAB_fMRI,865258,41253,52431,2,21,61,B4,glasses,3,9(,5117.3883776,5321.4005048,204.0121272,0,0
1941,4$,1,62,12,31,52,42,22,Abstract_Concrete_6tasks_simseq_2seq_listtask_switchAB_fMRI,865258,41253,52431,2,22,62,A1,weapon,5,4$,5117.3883776,5330.4018696,213.013492,0,0
2619,4$,1,61,11,32,51,42,21,Abstract_Concrete_6tasks_simseq_2seq_listtask_switchAB_fMRI,865258,41253,52431,2,23,63,B3,weapon,5,4$,5117.3883776,5339.4004432,222.0120656,0,0
1906,9(,1,61,11,32,52,42,21,Abstract_Concrete_6tasks_simseq_2seq_listtask_switchAB_fMRI,865258,41253,52431,2,24,64,A5,glasses,3,9(,5117.3883776,5349.4014797,232.0131021,0,0
1419,2@,1,61,11,31,52,41,22,Abstract_Concrete_6tasks_simseq_2seq_listtask_switchAB_fMRI,865258,41253,52431,2,25,65,B2,vest,2,2@,5117.3883776,5358.4003442,241.0119666,0,0
3032,7&,1,62,12,31,52,42,22,Abstract_Concrete_6tasks_simseq_2seq_listtask_switchAB_fMRI,865258,41253,52431,2,26,66,A4,tools,6,7&,5117.3883776,5367.3999158,250.011538199999,0,0
1546,4$,1,61,12,32,52,42,22,Abstract_Concrete_6tasks_simseq_2seq_listtask_switchAB_fMRI,865258,41253,52431,2,27,67,B3,weapon,5,4$,5117.3883776,5378.4002095,261.011831899999,0,0
2532,9(,0,61,11,32,51,42,21,Abstract_Concrete_6tasks_simseq_2seq_listtask_switchAB_fMRI,865258,41253,52431,2,28,68,A4,tools,6,7&,5117.3883776,5387.3999623,270.0115847,5389.9451562,272.5567786
1379,2@,1,62,12,32,52,41,21,Abstract_Concrete_6tasks_simseq_2seq_listtask_switchAB_fMRI,865258,41253,52431,2,29,69,B2,vest,2,2@,5117.3883776,5397.3982078,280.0098302,0,0
1590,4$,1,62,11,31,52,42,22,Abstract_Concrete_6tasks_simseq_2seq_listtask_switchAB_fMRI,865258,41253,52431,2,30,70,A1,weapon,5,4$,5117.3883776,5406.401516,289.0131384,0,0
1254,8*,1,62,11,31,52,42,21,Abstract_Concrete_6tasks_simseq_2seq_listtask_switchAB_fMRI,865258,41253,52431,2,31,71,B5,helmet,1,8*,5117.3883776,5415.4004898,298.0121122,0,0
3878,7&,1,62,12,31,52,41,21,Abstract_Concrete_6tasks_simseq_2seq_listtask_switchAB_fMRI,865258,41253,52431,2,32,72,A4,tools,6,7&,5117.3883776,5424.4007408,307.0123632,0,0
2440,9(,1,62,11,32,51,41,22,Abstract_Concrete_6tasks_simseq_2seq_listtask_switchAB_fMRI,865258,41253,52431,2,33,73,B4,glasses,3,9(,5117.3883776,5435.3991471,318.0107695,0,0
2795,8*,1,61,11,32,51,42,22,Abstract_Concrete_6tasks_simseq_2seq_listtask_switchAB_fMRI,865258,41253,52431,2,34,74,A2,helmet,1,8*,5117.3883776,5445.4023095,328.0139319,0,0
1362,2@,1,62,12,32,52,41,21,Abstract_Concrete_6tasks_simseq_2seq_listtask_switchAB_fMRI,865258,41253,52431,2,35,75,B2,vest,2,2@,5117.3883776,5455.3988938,338.0105162,0,0
1586,8*,1,62,11,32,51,42,22,Abstract_Concrete_6tasks_simseq_2seq_listtask_switchAB_fMRI,865258,41253,52431,2,36,76,A2,helmet,1,8*,5117.3883776,5464.4014335,347.0130559,0,0
1678,8*,1,62,12,32,51,41,21,Abstract_Concrete_6tasks_simseq_2seq_listtask_switchAB_fMRI,865258,41253,52431,2,37,77,B5,helmet,1,8*,5117.3883776,5473.3996523,356.011274699999,0,0
1893,9(,1,62,12,31,52,41,21,Abstract_Concrete_6tasks_simseq_2seq_listtask_switchAB_fMRI,865258,41253,52431,2,38,78,A5,glasses,3,9(,5117.3883776,5482.3997237,365.0113461,0,0
2112,4$,1,62,11,31,52,42,22,Abstract_Concrete_6tasks_simseq_2seq_listtask_switchAB_fMRI,865258,41253,52431,2,39,79,B3,weapon,5,4$,5117.3883776,5491.4008935,374.0125159,0,0
1791,4$,1,61,11,31,52,41,21,Abstract_Concrete_6tasks_simseq_2seq_listtask_switchAB_fMRI,865258,41253,52431,2,40,80,A1,weapon,5,4$,5117.3883776,5501.4003447,384.011967099999,0,0
3348,4$,1,61,11,31,52,41,21,Abstract_Concrete_6tasks_simseq_2seq_listtask_switchAB_fMRI,865258,41253,52431,3,1,81,A1,weapon,5,4$,5548.8851418,5556.8978437,8.01270189999923,0,0
1271,8*,1,62,11,32,52,41,22,Abstract_Concrete_6tasks_simseq_2seq_listtask_switchAB_fMRI,865258,41253,52431,3,2,82,B5,helmet,1,8*,5548.8851418,5567.8958491,19.0107072999999,0,0
2217,4$,1,62,11,31,51,41,21,Abstract_Concrete_6tasks_simseq_2seq_listtask_switchAB_fMRI,865258,41253,52431,3,3,83,A1,weapon,5,4$,5548.8851418,5576.897258,28.0121161999996,0,0
2053,7&,1,62,11,32,52,41,21,Abstract_Concrete_6tasks_simseq_2seq_listtask_switchAB_fMRI,865258,41253,52431,3,4,84,B1,tools,6,7&,5548.8851418,5586.8971362,38.0119943999998,0,0
4870,7&,1,61,11,31,52,42,22,Abstract_Concrete_6tasks_simseq_2seq_listtask_switchAB_fMRI,865258,41253,52431,3,5,85,A4,tools,6,7&,5548.8851418,5596.8984436,48.0133017999997,0,0
1387,9(,1,62,11,31,51,41,21,Abstract_Concrete_6tasks_simseq_2seq_listtask_switchAB_fMRI,865258,41253,52431,3,6,86,B4,glasses,3,9(,5548.8851418,5608.8988756,60.0137337999995,0,0
3492,7&,0,61,11,32,51,42,22,Abstract_Concrete_6tasks_simseq_2seq_listtask_switchAB_fMRI,865258,41253,52431,3,7,87,A3,vest,2,2@,5548.8851418,5617.8966967,69.0115548999993,5621.4052061,72.5200642999998
2417,9(,1,62,12,31,52,42,22,Abstract_Concrete_6tasks_simseq_2seq_listtask_switchAB_fMRI,865258,41253,52431,3,8,88,B4,glasses,3,9(,5548.8851418,5628.8989001,80.0137582999996,0,0
1885,2@,1,62,11,31,51,42,22,Abstract_Concrete_6tasks_simseq_2seq_listtask_switchAB_fMRI,865258,41253,52431,3,9,89,A3,vest,2,2@,5548.8851418,5638.89785,90.0127081999999,0,0
2724,4$,1,62,12,32,51,42,21,Abstract_Concrete_6tasks_simseq_2seq_listtask_switchAB_fMRI,865258,41253,52431,3,10,90,B3,weapon,5,4$,5548.8851418,5647.8971344,99.0119925999998,0,0
2469,2@,1,61,11,32,52,41,22,Abstract_Concrete_6tasks_simseq_2seq_listtask_switchAB_fMRI,865258,41253,52431,3,11,91,A3,vest,2,2@,5548.8851418,5657.8970558,109.011914,0,0
2286,4$,1,61,11,31,52,42,21,Abstract_Concrete_6tasks_simseq_2seq_listtask_switchAB_fMRI,865258,41253,52431,3,12,92,B3,weapon,5,4$,5548.8851418,5667.899058,119.0139162,0,0
1976,4$,1,62,11,31,52,41,21,Abstract_Concrete_6tasks_simseq_2seq_listtask_switchAB_fMRI,865258,41253,52431,3,13,93,A1,weapon,5,4$,5548.8851418,5677.8976453,129.012503499999,0,0
1630,7&,1,62,11,31,52,42,22,Abstract_Concrete_6tasks_simseq_2seq_listtask_switchAB_fMRI,865258,41253,52431,3,14,94,B1,tools,6,7&,5548.8851418,5686.8972216,138.0120798,0,0
2062,7&,1,62,12,32,51,42,22,Abstract_Concrete_6tasks_simseq_2seq_listtask_switchAB_fMRI,865258,41253,52431,3,15,95,A4,tools,6,7&,5548.8851418,5695.8962534,147.0111116,0,0
1003,7&,1,61,11,32,51,42,21,Abstract_Concrete_6tasks_simseq_2seq_listtask_switchAB_fMRI,865258,41253,52431,3,16,96,B1,tools,6,7&,5548.8851418,5705.8975288,157.012387,0,0
1337,4$,1,62,12,32,52,41,21,Abstract_Concrete_6tasks_simseq_2seq_listtask_switchAB_fMRI,865258,41253,52431,3,17,97,A1,weapon,5,4$,5548.8851418,5714.8978072,166.0126654,0,0
2235,2@,1,61,12,32,51,42,21,Abstract_Concrete_6tasks_simseq_2seq_listtask_switchAB_fMRI,865258,41253,52431,3,18,98,B2,vest,2,2@,5548.8851418,5723.8962825,175.011140699999,0,0
2566,9(,1,61,11,31,52,41,21,Abstract_Concrete_6tasks_simseq_2seq_listtask_switchAB_fMRI,865258,41253,52431,3,19,99,A5,glasses,3,9(,5548.8851418,5733.8979963,185.0128545,0,0
1444,4$,1,62,12,32,52,42,22,Abstract_Concrete_6tasks_simseq_2seq_listtask_switchAB_fMRI,865258,41253,52431,3,20,100,B3,weapon,5,4$,5548.8851418,5743.8976229,195.0124811,0,0
2102,9(,1,62,12,32,51,41,21,Abstract_Concrete_6tasks_simseq_2seq_listtask_switchAB_fMRI,865258,41253,52431,3,21,101,A5,glasses,3,9(,5548.8851418,5752.8976508,204.012508999999,0,0
1246,9(,1,61,12,31,51,41,21,Abstract_Concrete_6tasks_simseq_2seq_listtask_switchAB_fMRI,865258,41253,52431,3,22,102,B4,glasses,3,9(,5548.8851418,5762.8976723,214.012530499999,0,0
2176,8*,1,61,11,32,51,42,22,Abstract_Concrete_6tasks_simseq_2seq_listtask_switchAB_fMRI,865258,41253,52431,3,23,103,A2,helmet,1,8*,5548.8851418,5771.8974577,223.0123159,0,0
1088,4$,1,61,11,31,51,42,22,Abstract_Concrete_6tasks_simseq_2seq_listtask_switchAB_fMRI,865258,41253,52431,3,24,104,B3,weapon,5,4$,5548.8851418,5781.8967995,233.0116577,0,0
2196,8*,1,62,11,31,51,42,21,Abstract_Concrete_6tasks_simseq_2seq_listtask_switchAB_fMRI,865258,41253,52431,3,25,105,A2,helmet,1,8*,5548.8851418,5790.8970006,242.0118588,0,0
1087,8*,1,61,12,31,51,41,22,Abstract_Concrete_6tasks_simseq_2seq_listtask_switchAB_fMRI,865258,41253,52431,3,26,106,B5,helmet,1,8*,5548.8851418,5800.8960746,252.0109328,0,0
2541,2@,1,61,12,31,51,42,21,Abstract_Concrete_6tasks_simseq_2seq_listtask_switchAB_fMRI,865258,41253,52431,3,27,107,A3,vest,2,2@,5548.8851418,5809.8991162,261.0139744,0,0
3177,2@,1,61,11,31,52,42,22,Abstract_Concrete_6tasks_simseq_2seq_listtask_switchAB_fMRI,865258,41253,52431,3,28,108,B2,vest,2,2@,5548.8851418,5819.8979488,271.012807,0,0
1973,9(,1,62,11,31,51,41,22,Abstract_Concrete_6tasks_simseq_2seq_listtask_switchAB_fMRI,865258,41253,52431,3,29,109,A5,glasses,3,9(,5548.8851418,5830.8974474,282.012305599999,0,0
1811,2@,1,61,12,32,52,41,21,Abstract_Concrete_6tasks_simseq_2seq_listtask_switchAB_fMRI,865258,41253,52431,3,30,110,B2,vest,2,2@,5548.8851418,5839.8966783,291.011536499999,0,0
2134,7&,1,61,12,32,52,41,22,Abstract_Concrete_6tasks_simseq_2seq_listtask_switchAB_fMRI,865258,41253,52431,3,31,111,A4,tools,6,7&,5548.8851418,5848.8969382,300.011796399999,0,0
1685,9(,1,61,12,31,52,41,21,Abstract_Concrete_6tasks_simseq_2seq_listtask_switchAB_fMRI,865258,41253,52431,3,32,112,B4,glasses,3,9(,5548.8851418,5858.8979664,310.012824599999,0,0
1576,7&,1,61,12,31,52,41,21,Abstract_Concrete_6tasks_simseq_2seq_listtask_switchAB_fMRI,865258,41253,52431,3,33,113,A4,tools,6,7&,5548.8851418,5867.8972405,319.0120987,0,0
1160,2@,1,62,12,31,51,42,22,Abstract_Concrete_6tasks_simseq_2seq_listtask_switchAB_fMRI,865258,41253,52431,3,34,114,B2,vest,2,2@,5548.8851418,5876.8964025,328.011260699999,0,0
1754,9(,1,61,12,32,51,42,21,Abstract_Concrete_6tasks_simseq_2seq_listtask_switchAB_fMRI,865258,41253,52431,3,35,115,A5,glasses,3,9(,5548.8851418,5885.8974431,337.012301299999,0,0
1796,7&,1,62,12,31,52,41,22,Abstract_Concrete_6tasks_simseq_2seq_listtask_switchAB_fMRI,865258,41253,52431,3,36,116,B1,tools,6,7&,5548.8851418,5894.8975854,346.0124436,0,0
2873,8*,1,62,12,32,51,41,21,Abstract_Concrete_6tasks_simseq_2seq_listtask_switchAB_fMRI,865258,41253,52431,3,37,117,A2,helmet,1,8*,5548.8851418,5903.8964171,355.011275299999,0,0
1294,8*,1,61,11,32,52,42,21,Abstract_Concrete_6tasks_simseq_2seq_listtask_switchAB_fMRI,865258,41253,52431,3,38,118,B5,helmet,1,8*,5548.8851418,5913.896762,365.0116202,0,0
1259,8*,1,61,12,31,51,42,22,Abstract_Concrete_6tasks_simseq_2seq_listtask_switchAB_fMRI,865258,41253,52431,3,39,119,A2,helmet,1,8*,5548.8851418,5922.8970089,374.0118671,0,0
931,8*,1,61,11,31,52,42,22,Abstract_Concrete_6tasks_simseq_2seq_listtask_switchAB_fMRI,865258,41253,52431,3,40,120,B5,helmet,1,8*,5548.8851418,5931.8964854,383.011343599999,0,0
2282,8*,1,62,11,31,51,41,22,Abstract_Concrete_6tasks_simseq_2seq_listtask_switchAB_fMRI,865258,41253,52431,4,1,121,A2,helmet,1,8*,6016.7270898,6024.73582977181,8.00873997181134,0,0
1795,2@,1,62,11,32,52,42,22,Abstract_Concrete_6tasks_simseq_2seq_listtask_switchAB_fMRI,865258,41253,52431,4,2,122,B2,vest,2,2@,6016.7270898,6034.7354403852,18.0083505852044,0,0
1516,9(,1,61,11,32,52,41,21,Abstract_Concrete_6tasks_simseq_2seq_listtask_switchAB_fMRI,865258,41253,52431,4,3,123,A5,glasses,3,9(,6016.7270898,6043.7394553,27.0123655000007,0,0
1434,7&,1,61,11,32,51,42,21,Abstract_Concrete_6tasks_simseq_2seq_listtask_switchAB_fMRI,865258,41253,52431,4,4,124,B1,tools,6,7&,6016.7270898,6052.7404596,36.0133698,0,0
2174,4$,1,62,12,32,52,41,22,Abstract_Concrete_6tasks_simseq_2seq_listtask_switchAB_fMRI,865258,41253,52431,4,5,125,A1,weapon,5,4$,6016.7270898,6061.740714,45.0136241999999,0,0
1882,2@,1,61,11,31,51,41,21,Abstract_Concrete_6tasks_simseq_2seq_listtask_switchAB_fMRI,865258,41253,52431,4,6,126,B2,vest,2,2@,6016.7270898,6071.7399104,55.0128205999999,0,0
2201,8*,0,62,12,32,51,42,21,Abstract_Concrete_6tasks_simseq_2seq_listtask_switchAB_fMRI,865258,41253,52431,4,7,127,A3,vest,2,2@,6016.7270898,6080.7393885,64.0122987000004,6082.9534705,66.2263806999999
1334,4$,1,62,11,31,52,41,22,Abstract_Concrete_6tasks_simseq_2seq_listtask_switchAB_fMRI,865258,41253,52431,4,8,128,B3,weapon,5,4$,6016.7270898,6090.73869,74.0116002000004,0,0
3789,2@,1,61,12,32,52,41,22,Abstract_Concrete_6tasks_simseq_2seq_listtask_switchAB_fMRI,865258,41253,52431,4,9,129,A3,vest,2,2@,6016.7270898,6099.7407563,83.0136665,0,0
2082,2@,1,62,11,32,52,41,22,Abstract_Concrete_6tasks_simseq_2seq_listtask_switchAB_fMRI,865258,41253,52431,4,10,130,B2,vest,2,2@,6016.7270898,6110.7385878,94.0114979999998,0,0
2366,7&,1,62,11,32,52,41,22,Abstract_Concrete_6tasks_simseq_2seq_listtask_switchAB_fMRI,865258,41253,52431,4,11,131,A4,tools,6,7&,6016.7270898,6120.7396056,104.0125158,0,0
1048,9(,1,62,12,31,51,42,21,Abstract_Concrete_6tasks_simseq_2seq_listtask_switchAB_fMRI,865258,41253,52431,4,12,132,B4,glasses,3,9(,6016.7270898,6130.7389663,114.011876500001,0,0
2469,9(,1,62,11,31,52,42,21,Abstract_Concrete_6tasks_simseq_2seq_listtask_switchAB_fMRI,865258,41253,52431,4,13,133,A5,glasses,3,9(,6016.7270898,6139.7410959,123.0140061,0,0
989,8*,1,62,12,31,51,42,21,Abstract_Concrete_6tasks_simseq_2seq_listtask_switchAB_fMRI,865258,41253,52431,4,14,134,B5,helmet,1,8*,6016.7270898,6149.741161,133.0140712,0,0
2349,7&,1,62,12,31,51,42,21,Abstract_Concrete_6tasks_simseq_2seq_listtask_switchAB_fMRI,865258,41253,52431,4,15,135,A4,tools,6,7&,6016.7270898,6158.7396521,142.0125623,0,0
1237,9(,1,62,11,31,52,42,22,Abstract_Concrete_6tasks_simseq_2seq_listtask_switchAB_fMRI,865258,41253,52431,4,16,136,B4,glasses,3,9(,6016.7270898,6168.7410283,152.0139385,0,0
1628,9(,1,62,11,31,51,42,21,Abstract_Concrete_6tasks_simseq_2seq_listtask_switchAB_fMRI,865258,41253,52431,4,17,137,A5,glasses,3,9(,6016.7270898,6177.738871,161.0117812,0,0
1280,7&,1,61,11,31,51,42,21,Abstract_Concrete_6tasks_simseq_2seq_listtask_switchAB_fMRI,865258,41253,52431,4,18,138,B1,tools,6,7&,6016.7270898,6186.7379836,170.0108938,0,0
828,7&,0,62,11,32,51,41,21,Abstract_Concrete_6tasks_simseq_2seq_listtask_switchAB_fMRI,865258,41253,52431,4,19,139,A1,weapon,5,4$,6016.7270898,6195.7406397,179.013549900001,6196.5809654,179.853875600001
1687,8*,1,61,11,32,52,41,21,Abstract_Concrete_6tasks_simseq_2seq_listtask_switchAB_fMRI,865258,41253,52431,4,20,140,B5,helmet,1,8*,6016.7270898,6203.7390477,187.0119579,0,0
2154,2@,1,61,12,32,51,41,22,Abstract_Concrete_6tasks_simseq_2seq_listtask_switchAB_fMRI,865258,41253,52431,4,21,141,A3,vest,2,2@,6016.7270898,6212.740842,196.0137522,0,0
2630,4$,1,61,11,32,51,41,22,Abstract_Concrete_6tasks_simseq_2seq_listtask_switchAB_fMRI,865258,41253,52431,4,22,142,B3,weapon,5,4$,6016.7270898,6222.7396008,206.012511,0,0
1587,8*,1,61,11,32,52,42,22,Abstract_Concrete_6tasks_simseq_2seq_listtask_switchAB_fMRI,865258,41253,52431,4,23,143,A2,helmet,1,8*,6016.7270898,6232.7384886,216.0113988,0,0
1599,2@,1,61,12,31,52,41,21,Abstract_Concrete_6tasks_simseq_2seq_listtask_switchAB_fMRI,865258,41253,52431,4,24,144,B2,vest,2,2@,6016.7270898,6241.7387458,225.011656000001,0,0
1734,4$,1,61,11,31,51,42,22,Abstract_Concrete_6tasks_simseq_2seq_listtask_switchAB_fMRI,865258,41253,52431,4,25,145,A1,weapon,5,4$,6016.7270898,6250.7400811,234.0129913,0,0
1202,9(,1,62,12,31,51,42,22,Abstract_Concrete_6tasks_simseq_2seq_listtask_switchAB_fMRI,865258,41253,52431,4,26,146,B4,glasses,3,9(,6016.7270898,6259.7373877,243.0102979,0,0
1941,7&,1,61,11,32,52,42,21,Abstract_Concrete_6tasks_simseq_2seq_listtask_switchAB_fMRI,865258,41253,52431,4,27,147,A4,tools,6,7&,6016.7270898,6268.7403844,252.0132946,0,0
1061,9(,0,62,12,32,52,42,21,Abstract_Concrete_6tasks_simseq_2seq_listtask_switchAB_fMRI,865258,41253,52431,4,28,148,B5,helmet,1,8*,6016.7270898,6277.7396218,261.012532000001,6278.8131509,262.086061100001
1122,4$,1,62,11,31,51,41,22,Abstract_Concrete_6tasks_simseq_2seq_listtask_switchAB_fMRI,865258,41253,52431,4,29,149,A1,weapon,5,4$,6016.7270898,6286.7372593,270.0101695,0,0
1088,9(,1,61,11,31,51,42,21,Abstract_Concrete_6tasks_simseq_2seq_listtask_switchAB_fMRI,865258,41253,52431,4,30,150,B4,glasses,3,9(,6016.7270898,6295.7394408,279.012351,0,0
1728,8*,1,61,11,32,52,42,22,Abstract_Concrete_6tasks_simseq_2seq_listtask_switchAB_fMRI,865258,41253,52431,4,31,151,A2,helmet,1,8*,6016.7270898,6304.7389608,288.011871000001,0,0
2069,8*,1,62,11,31,51,41,21,Abstract_Concrete_6tasks_simseq_2seq_listtask_switchAB_fMRI,865258,41253,52431,4,32,152,B5,helmet,1,8*,6016.7270898,6313.7396092,297.0125194,0,0
1820,9(,1,61,11,31,51,41,22,Abstract_Concrete_6tasks_simseq_2seq_listtask_switchAB_fMRI,865258,41253,52431,4,33,153,A5,glasses,3,9(,6016.7270898,6323.7636638,307.036574000001,0,0
1478,4$,1,61,12,32,51,42,22,Abstract_Concrete_6tasks_simseq_2seq_listtask_switchAB_fMRI,865258,41253,52431,4,34,154,B3,weapon,5,4$,6016.7270898,6332.736983,316.0098932,0,0
1877,7&,1,62,11,31,51,42,21,Abstract_Concrete_6tasks_simseq_2seq_listtask_switchAB_fMRI,865258,41253,52431,4,35,155,A4,tools,6,7&,6016.7270898,6341.7389466,325.011856800001,0,0
1606,4$,1,61,12,32,51,42,22,Abstract_Concrete_6tasks_simseq_2seq_listtask_switchAB_fMRI,865258,41253,52431,4,36,156,B3,weapon,5,4$,6016.7270898,6350.7384885,334.0113987,0,0
1662,8*,1,62,11,31,51,41,22,Abstract_Concrete_6tasks_simseq_2seq_listtask_switchAB_fMRI,865258,41253,52431,4,37,157,A2,helmet,1,8*,6016.7270898,6359.7398839,343.0127941,0,0
3331,7&,1,62,11,32,51,42,22,Abstract_Concrete_6tasks_simseq_2seq_listtask_switchAB_fMRI,865258,41253,52431,4,38,158,B1,tools,6,7&,6016.7270898,6368.7404164,352.0133266,0,0
2305,2@,1,62,11,31,52,41,21,Abstract_Concrete_6tasks_simseq_2seq_listtask_switchAB_fMRI,865258,41253,52431,4,39,159,A3,vest,2,2@,6016.7270898,6379.7388816,363.011791800001,0,0
2019,7&,1,62,11,32,52,41,21,Abstract_Concrete_6tasks_simseq_2seq_listtask_switchAB_fMRI,865258,41253,52431,4,40,160,B1,tools,6,7&,6016.7270898,6389.7385511,373.011461300001,0,0
1364,9(,0,61,12,31,51,42,22,Abstract_Concrete_6tasks_simseq_2seq_listtask_switchAB_fMRI,865258,41253,52431,5,1,161,B5,helmet,1,8*,6465.3315745,6473.3443627,8.0127881999997,6474.727445,9.39587050000046
1467,7&,1,61,12,31,52,41,22,Abstract_Concrete_6tasks_simseq_2seq_listtask_switchAB_fMRI,865258,41253,52431,5,2,162,A4,tools,6,7&,6465.3315745,6482.3422258,17.0106513000001,0,0
1439,2@,1,61,11,32,51,42,22,Abstract_Concrete_6tasks_simseq_2seq_listtask_switchAB_fMRI,865258,41253,52431,5,3,163,B2,vest,2,2@,6465.3315745,6491.3462207,26.0146462000002,0,0
1918,2@,1,62,12,31,51,41,21,Abstract_Concrete_6tasks_simseq_2seq_listtask_switchAB_fMRI,865258,41253,52431,5,4,164,A3,vest,2,2@,6465.3315745,6500.3438954,35.0123209000003,0,0
965,7&,1,61,12,32,51,41,22,Abstract_Concrete_6tasks_simseq_2seq_listtask_switchAB_fMRI,865258,41253,52431,5,5,165,B1,tools,6,7&,6465.3315745,6509.3437397,44.0121651999998,0,0
3241,9(,0,61,11,31,51,41,21,Abstract_Concrete_6tasks_simseq_2seq_listtask_switchAB_fMRI,865258,41253,52431,5,6,166,A4,tools,6,7&,6465.3315745,6517.3435703,52.0119957999996,6520.5986272,55.2670527
1240,4$,1,62,12,31,52,42,21,Abstract_Concrete_6tasks_simseq_2seq_listtask_switchAB_fMRI,865258,41253,52431,5,7,167,B3,weapon,5,4$,6465.3315745,6528.3447598,63.0131853000003,0,0
2517,7&,1,62,11,32,51,41,21,Abstract_Concrete_6tasks_simseq_2seq_listtask_switchAB_fMRI,865258,41253,52431,5,8,168,A4,tools,6,7&,6465.3315745,6537.3451385,72.0135639999999,0,0
2535,9(,1,61,12,32,52,42,22,Abstract_Concrete_6tasks_simseq_2seq_listtask_switchAB_fMRI,865258,41253,52431,5,9,169,B4,glasses,3,9(,6465.3315745,6547.3452439,82.0136694000003,0,0
2851,8*,1,62,12,32,51,41,22,Abstract_Concrete_6tasks_simseq_2seq_listtask_switchAB_fMRI,865258,41253,52431,5,10,170,A2,helmet,1,8*,6465.3315745,6557.3430247,92.0114501999997,0,0
993,9(,1,61,11,31,52,41,22,Abstract_Concrete_6tasks_simseq_2seq_listtask_switchAB_fMRI,865258,41253,52431,5,11,171,B4,glasses,3,9(,6465.3315745,6567.343422,102.0118475,0,0
1905,7&,0,61,12,32,51,42,22,Abstract_Concrete_6tasks_simseq_2seq_listtask_switchAB_fMRI,865258,41253,52431,5,12,172,A5,glasses,3,9(,6465.3315745,6576.3431636,111.0115891,6578.2606899,112.9291154
1056,4$,1,62,12,31,51,42,21,Abstract_Concrete_6tasks_simseq_2seq_listtask_switchAB_fMRI,865258,41253,52431,5,13,173,B3,weapon,5,4$,6465.3315745,6585.3427,120.0111255,0,0
558,8*,1,62,12,31,52,41,22,Abstract_Concrete_6tasks_simseq_2seq_listtask_switchAB_fMRI,865258,41253,52431,5,14,174,A2,helmet,1,8*,6465.3315745,6594.3429764,129.0114019,0,0
934,7&,1,61,12,31,51,41,22,Abstract_Concrete_6tasks_simseq_2seq_listtask_switchAB_fMRI,865258,41253,52431,5,15,175,B1,tools,6,7&,6465.3315745,6602.3450751,137.0135006,0,0
1640,7&,0,61,11,31,52,42,22,Abstract_Concrete_6tasks_simseq_2seq_listtask_switchAB_fMRI,865258,41253,52431,5,16,176,A1,weapon,5,4$,6465.3315745,6610.3425155,145.010941,6611.9940527,146.6624782
674,7&,1,62,12,32,52,42,22,Abstract_Concrete_6tasks_simseq_2seq_listtask_switchAB_fMRI,865258,41253,52431,5,17,177,B1,tools,6,7&,6465.3315745,6619.3420605,154.010486,0,0
1858,8*,1,62,11,32,51,41,22,Abstract_Concrete_6tasks_simseq_2seq_listtask_switchAB_fMRI,865258,41253,52431,5,18,178,A2,helmet,1,8*,6465.3315745,6627.343005,162.0114305,0,0
1911,8*,1,62,11,31,52,41,21,Abstract_Concrete_6tasks_simseq_2seq_listtask_switchAB_fMRI,865258,41253,52431,5,19,179,B5,helmet,1,8*,6465.3315745,6636.3434132,171.0118387,0,0
1228,9(,1,62,12,32,52,41,21,Abstract_Concrete_6tasks_simseq_2seq_listtask_switchAB_fMRI,865258,41253,52431,5,20,180,A5,glasses,3,9(,6465.3315745,6645.3431036,180.0115291,0,0
2776,2@,1,62,12,31,52,42,22,Abstract_Concrete_6tasks_simseq_2seq_listtask_switchAB_fMRI,865258,41253,52431,5,21,181,B2,vest,2,2@,6465.3315745,6654.3444056,189.0128311,0,0
1618,7&,0,62,12,31,51,42,21,Abstract_Concrete_6tasks_simseq_2seq_listtask_switchAB_fMRI,865258,41253,52431,5,22,182,A1,weapon,5,4$,6465.3315745,6664.3435883,199.0120138,6665.9725961,200.6410216
1346,9(,1,62,12,31,52,42,21,Abstract_Concrete_6tasks_simseq_2seq_listtask_switchAB_fMRI,865258,41253,52431,5,23,183,B4,glasses,3,9(,6465.3315745,6673.3415884,208.0100139,0,0
1454,4$,1,61,12,31,52,41,21,Abstract_Concrete_6tasks_simseq_2seq_listtask_switchAB_fMRI,865258,41253,52431,5,24,184,A1,weapon,5,4$,6465.3315745,6682.34431,217.0127355,0,0
4406,8*,1,61,12,31,51,42,21,Abstract_Concrete_6tasks_simseq_2seq_listtask_switchAB_fMRI,865258,41253,52431,5,25,185,B5,helmet,1,8*,6465.3315745,6691.3442274,226.0126529,0,0
1834,2@,1,61,12,31,52,41,22,Abstract_Concrete_6tasks_simseq_2seq_listtask_switchAB_fMRI,865258,41253,52431,5,26,186,A3,vest,2,2@,6465.3315745,6703.3451932,238.0136187,0,0
1248,9(,1,61,11,32,52,42,22,Abstract_Concrete_6tasks_simseq_2seq_listtask_switchAB_fMRI,865258,41253,52431,5,27,187,B4,glasses,3,9(,6465.3315745,6712.3445776,247.0130031,0,0
1443,2@,1,61,12,31,52,41,22,Abstract_Concrete_6tasks_simseq_2seq_listtask_switchAB_fMRI,865258,41253,52431,5,28,188,A3,vest,2,2@,6465.3315745,6721.3449944,256.0134199,0,0
3252,2@,1,61,12,31,52,41,22,Abstract_Concrete_6tasks_simseq_2seq_listtask_switchAB_fMRI,865258,41253,52431,5,29,189,B2,vest,2,2@,6465.3315745,6730.3449871,265.0134126,0,0
2300,2@,1,61,12,32,51,41,21,Abstract_Concrete_6tasks_simseq_2seq_listtask_switchAB_fMRI,865258,41253,52431,5,30,190,A3,vest,2,2@,6465.3315745,6741.3448326,276.0132581,0,0
948,8*,1,61,12,31,52,41,21,Abstract_Concrete_6tasks_simseq_2seq_listtask_switchAB_fMRI,865258,41253,52431,5,31,191,B5,helmet,1,8*,6465.3315745,6751.3428761,286.0113016,0,0
482,4$,1,62,11,31,52,42,22,Abstract_Concrete_6tasks_simseq_2seq_listtask_switchAB_fMRI,865258,41253,52431,5,32,192,A1,weapon,5,4$,6465.3315745,6759.3420842,294.0105097,0,0
1723,2@,0,62,12,31,52,41,22,Abstract_Concrete_6tasks_simseq_2seq_listtask_switchAB_fMRI,865258,41253,52431,5,33,193,B3,weapon,5,4$,6465.3315745,6767.345168,302.0135935,6769.079605,303.7480305
507,9(,1,62,12,32,51,41,22,Abstract_Concrete_6tasks_simseq_2seq_listtask_switchAB_fMRI,865258,41253,52431,5,34,194,A5,glasses,3,9(,6465.3315745,6776.3413698,311.0097953,0,0
466,2@,1,61,11,31,52,42,21,Abstract_Concrete_6tasks_simseq_2seq_listtask_switchAB_fMRI,865258,41253,52431,5,35,195,B2,vest,2,2@,6465.3315745,6784.3447664,319.0131919,0,0
1896,9(,1,62,12,32,52,42,21,Abstract_Concrete_6tasks_simseq_2seq_listtask_switchAB_fMRI,865258,41253,52431,5,36,196,A5,glasses,3,9(,6465.3315745,6792.3436787,327.0121042,0,0
550,7&,1,61,11,31,51,41,21,Abstract_Concrete_6tasks_simseq_2seq_listtask_switchAB_fMRI,865258,41253,52431,5,37,197,B1,tools,6,7&,6465.3315745,6801.3427643,336.0111898,0,0
453,2@,0,61,11,32,52,42,22,Abstract_Concrete_6tasks_simseq_2seq_listtask_switchAB_fMRI,865258,41253,52431,5,38,198,A2,helmet,1,8*,6465.3315745,6809.3437558,344.0121813,6809.8060969,344.4745224
2389,4$,1,62,12,31,52,41,22,Abstract_Concrete_6tasks_simseq_2seq_listtask_switchAB_fMRI,865258,41253,52431,5,39,199,B3,weapon,5,4$,6465.3315745,6817.3418182,352.0102437,0,0
834,7&,1,61,11,31,52,42,22,Abstract_Concrete_6tasks_simseq_2seq_listtask_switchAB_fMRI,865258,41253,52431,5,40,200,A4,tools,6,7&,6465.3315745,6827.3437038,362.0121293,0,0
1715,7&,1,61,11,32,51,41,21,Abstract_Concrete_6tasks_simseq_2seq_listtask_switchAB_fMRI,865258,41253,52431,6,1,201,A4,tools,6,7&,6878.9902194,6887.0015951,8.01137569999992,0,0
1004,7&,1,61,11,32,52,42,21,Abstract_Concrete_6tasks_simseq_2seq_listtask_switchAB_fMRI,865258,41253,52431,6,2,202,B1,tools,6,7&,6878.9902194,6896.0015347,17.0113153000002,0,0
2574,4$,1,62,11,32,51,41,21,Abstract_Concrete_6tasks_simseq_2seq_listtask_switchAB_fMRI,865258,41253,52431,6,3,203,A1,weapon,5,4$,6878.9902194,6905.0018285,26.0116091,0,0
2167,9(,1,61,11,32,51,41,21,Abstract_Concrete_6tasks_simseq_2seq_listtask_switchAB_fMRI,865258,41253,52431,6,4,204,B4,glasses,3,9(,6878.9902194,6915.0037948,36.0135754000003,0,0
1294,2@,1,62,11,32,51,41,22,Abstract_Concrete_6tasks_simseq_2seq_listtask_switchAB_fMRI,865258,41253,52431,6,5,205,A3,vest,2,2@,6878.9902194,6925.002697,46.0124776000002,0,0
668,7&,1,61,12,32,52,42,21,Abstract_Concrete_6tasks_simseq_2seq_listtask_switchAB_fMRI,865258,41253,52431,6,6,206,B1,tools,6,7&,6878.9902194,6934.0028351,55.0126157000004,0,0
1674,7&,1,61,11,31,51,41,22,Abstract_Concrete_6tasks_simseq_2seq_listtask_switchAB_fMRI,865258,41253,52431,6,7,207,A4,tools,6,7&,6878.9902194,6942.0010447,63.0108253000008,0,0
2551,4$,1,61,12,32,51,42,22,Abstract_Concrete_6tasks_simseq_2seq_listtask_switchAB_fMRI,865258,41253,52431,6,8,208,B3,weapon,5,4$,6878.9902194,6951.0021473,72.0119279,0,0
1779,8*,1,62,11,32,51,41,22,Abstract_Concrete_6tasks_simseq_2seq_listtask_switchAB_fMRI,865258,41253,52431,6,9,209,A2,helmet,1,8*,6878.9902194,6961.0037225,82.0135031,0,0
1832,2@,1,62,12,32,52,42,21,Abstract_Concrete_6tasks_simseq_2seq_listtask_switchAB_fMRI,865258,41253,52431,6,10,210,B2,vest,2,2@,6878.9902194,6970.0049479,91.0147285000003,0,0
1874,9(,1,62,12,32,51,42,21,Abstract_Concrete_6tasks_simseq_2seq_listtask_switchAB_fMRI,865258,41253,52431,6,11,211,A5,glasses,3,9(,6878.9902194,6979.0034204,100.013201000001,0,0
1575,7&,1,62,11,31,51,41,22,Abstract_Concrete_6tasks_simseq_2seq_listtask_switchAB_fMRI,865258,41253,52431,6,12,212,B1,tools,6,7&,6878.9902194,6988.0031243,109.012904900001,0,0
1575,9(,1,62,12,32,51,41,22,Abstract_Concrete_6tasks_simseq_2seq_listtask_switchAB_fMRI,865258,41253,52431,6,13,213,A5,glasses,3,9(,6878.9902194,6997.0022628,118.0120434,0,0
1715,8*,1,62,12,31,52,41,22,Abstract_Concrete_6tasks_simseq_2seq_listtask_switchAB_fMRI,865258,41253,52431,6,14,214,B5,helmet,1,8*,6878.9902194,7006.0030071,127.0127877,0,0
2537,9(,1,61,12,32,52,42,22,Abstract_Concrete_6tasks_simseq_2seq_listtask_switchAB_fMRI,865258,41253,52431,6,15,215,A5,glasses,3,9(,6878.9902194,7015.0036578,136.0134384,0,0
1074,9(,1,61,11,31,51,42,21,Abstract_Concrete_6tasks_simseq_2seq_listtask_switchAB_fMRI,865258,41253,52431,6,16,216,B4,glasses,3,9(,6878.9902194,7025.0034138,146.0131944,0,0
2341,9(,1,62,11,31,51,41,22,Abstract_Concrete_6tasks_simseq_2seq_listtask_switchAB_fMRI,865258,41253,52431,6,17,217,A5,glasses,3,9(,6878.9902194,7034.0035094,155.013290000001,0,0
1636,4$,1,62,11,31,51,42,22,Abstract_Concrete_6tasks_simseq_2seq_listtask_switchAB_fMRI,865258,41253,52431,6,18,218,B3,weapon,5,4$,6878.9902194,7044.0021205,165.011901100001,0,0
3022,7&,1,62,12,32,52,42,22,Abstract_Concrete_6tasks_simseq_2seq_listtask_switchAB_fMRI,865258,41253,52431,6,19,219,A4,tools,6,7&,6878.9902194,7053.0022257,174.0120063,0,0
1257,9(,1,62,12,31,52,41,22,Abstract_Concrete_6tasks_simseq_2seq_listtask_switchAB_fMRI,865258,41253,52431,6,20,220,B4,glasses,3,9(,6878.9902194,7064.0038893,185.0136699,0,0
1502,7&,1,61,11,32,52,41,21,Abstract_Concrete_6tasks_simseq_2seq_listtask_switchAB_fMRI,865258,41253,52431,6,21,221,A4,tools,6,7&,6878.9902194,7073.0037181,194.0134987,0,0
982,2@,1,62,12,32,51,41,22,Abstract_Concrete_6tasks_simseq_2seq_listtask_switchAB_fMRI,865258,41253,52431,6,22,222,B2,vest,2,2@,6878.9902194,7082.001534,203.0113146,0,0
5448,2@,1,61,11,31,51,42,22,Abstract_Concrete_6tasks_simseq_2seq_listtask_switchAB_fMRI,865258,41253,52431,6,23,223,A3,vest,2,2@,6878.9902194,7090.0024173,211.012197900001,0,0
1597,2@,1,61,11,31,52,42,22,Abstract_Concrete_6tasks_simseq_2seq_listtask_switchAB_fMRI,865258,41253,52431,6,24,224,B2,vest,2,2@,6878.9902194,7103.0015583,224.011338900001,0,0
1255,4$,1,62,12,32,52,41,21,Abstract_Concrete_6tasks_simseq_2seq_listtask_switchAB_fMRI,865258,41253,52431,6,25,225,A1,weapon,5,4$,6878.9902194,7112.0032932,233.013073800001,0,0
1113,8*,1,62,12,31,51,41,22,Abstract_Concrete_6tasks_simseq_2seq_listtask_switchAB_fMRI,865258,41253,52431,6,26,226,B5,helmet,1,8*,6878.9902194,7121.0027202,242.0125008,0,0
2529,8*,1,61,11,32,52,41,22,Abstract_Concrete_6tasks_simseq_2seq_listtask_switchAB_fMRI,865258,41253,52431,6,27,227,A2,helmet,1,8*,6878.9902194,7130.0015387,251.011319300001,0,0
1240,8*,1,62,11,31,51,41,21,Abstract_Concrete_6tasks_simseq_2seq_listtask_switchAB_fMRI,865258,41253,52431,6,28,228,B5,helmet,1,8*,6878.9902194,7140.0032317,261.0130123,0,0
2838,8*,1,61,11,31,51,41,21,Abstract_Concrete_6tasks_simseq_2seq_listtask_switchAB_fMRI,865258,41253,52431,6,29,229,A2,helmet,1,8*,6878.9902194,7149.0035738,270.0133544,0,0
2081,2@,1,61,11,32,51,41,21,Abstract_Concrete_6tasks_simseq_2seq_listtask_switchAB_fMRI,865258,41253,52431,6,30,230,B2,vest,2,2@,6878.9902194,7159.0015778,280.0113584,0,0
2391,4$,1,61,11,31,51,42,21,Abstract_Concrete_6tasks_simseq_2seq_listtask_switchAB_fMRI,865258,41253,52431,6,31,231,A1,weapon,5,4$,6878.9902194,7169.0027898,290.0125704,0,0
1639,9(,1,62,11,31,52,41,22,Abstract_Concrete_6tasks_simseq_2seq_listtask_switchAB_fMRI,865258,41253,52431,6,32,232,B4,glasses,3,9(,6878.9902194,7179.00144,300.0112206,0,0
1896,2@,1,61,12,31,52,42,21,Abstract_Concrete_6tasks_simseq_2seq_listtask_switchAB_fMRI,865258,41253,52431,6,33,233,A3,vest,2,2@,6878.9902194,7188.002832,309.0126126,0,0
1269,4$,1,62,12,31,51,41,22,Abstract_Concrete_6tasks_simseq_2seq_listtask_switchAB_fMRI,865258,41253,52431,6,34,234,B3,weapon,5,4$,6878.9902194,7197.0010559,318.010836500001,0,0
1339,8*,1,61,12,32,52,41,21,Abstract_Concrete_6tasks_simseq_2seq_listtask_switchAB_fMRI,865258,41253,52431,6,35,235,A2,helmet,1,8*,6878.9902194,7206.0019565,327.011737100001,0,0
974,8*,1,61,11,31,52,41,22,Abstract_Concrete_6tasks_simseq_2seq_listtask_switchAB_fMRI,865258,41253,52431,6,36,236,B5,helmet,1,8*,6878.9902194,7215.0033634,336.013144,0,0
1437,2@,1,61,12,32,51,41,22,Abstract_Concrete_6tasks_simseq_2seq_listtask_switchAB_fMRI,865258,41253,52431,6,37,237,A3,vest,2,2@,6878.9902194,7223.0005425,344.0103231,0,0
1914,2@,0,62,11,31,52,41,22,Abstract_Concrete_6tasks_simseq_2seq_listtask_switchAB_fMRI,865258,41253,52431,6,38,238,B3,weapon,5,4$,6878.9902194,7232.000702,353.010482600001,7233.928313,354.938093600001
1731,4$,1,62,12,32,51,41,22,Abstract_Concrete_6tasks_simseq_2seq_listtask_switchAB_fMRI,865258,41253,52431,6,39,239,A1,weapon,5,4$,6878.9902194,7241.0000498,362.0098304,0,0
967,4$,0,61,11,32,52,42,21,Abstract_Concrete_6tasks_simseq_2seq_listtask_switchAB_fMRI,865258,41253,52431,6,40,240,B1,tools,6,7&,6878.9902194,7250.0025314,371.012312000001,7250.9857401,371.9955207
