rt1,resp1,correct1,features_1,features_2,features_3,features_4,features_5,features_6,ExpName,subNo,seqA,seqB,block,trial,trialnum,cuetype,task,subtaskcode,corr_resp1,onsetTime_s,onsetTime_cue,onset_cue,onsetTime_cue_fb,onset_cue_fb
6416,8*,1,41,61,51,11,21,32,Abstract_Concrete_6tasks_simseq_2seq_listtask_switchAB_fMRI,872699,35214,12345,1,1,1,B5,tools,6,8*,97912.7835717,97920.7948934,8.01132170000346,0,0
4027,8*,1,41,62,52,12,21,32,Abstract_Concrete_6tasks_simseq_2seq_listtask_switchAB_fMRI,872699,35214,12345,1,2,2,A2,tools,6,8*,97912.7835717,97934.7955214,22.0119496999978,0,0
5684,9(,1,42,62,51,12,22,31,Abstract_Concrete_6tasks_simseq_2seq_listtask_switchAB_fMRI,872699,35214,12345,1,3,3,B4,weapon,5,9(,97912.7835717,97946.7952167,34.011645000006,0,0
4823,4$,1,42,62,51,11,21,31,Abstract_Concrete_6tasks_simseq_2seq_listtask_switchAB_fMRI,872699,35214,12345,1,4,4,A4,helmet,1,4$,97912.7835717,97959.7966778,47.0131060999993,0,0
3674,2@,1,41,61,51,12,22,32,Abstract_Concrete_6tasks_simseq_2seq_listtask_switchAB_fMRI,872699,35214,12345,1,5,5,B3,glasses,3,2@,97912.7835717,97971.7957815,59.0122097999993,0,0
1748,2@,1,42,62,51,12,22,31,Abstract_Concrete_6tasks_simseq_2seq_listtask_switchAB_fMRI,872699,35214,12345,1,6,6,A1,glasses,3,2@,97912.7835717,97982.7947658,70.0111941000068,0,0
2718,8*,1,41,61,51,12,21,31,Abstract_Concrete_6tasks_simseq_2seq_listtask_switchAB_fMRI,872699,35214,12345,1,7,7,B5,tools,6,8*,97912.7835717,97991.7956432,79.0120715000085,0,0
2532,9(,1,42,62,51,11,22,31,Abstract_Concrete_6tasks_simseq_2seq_listtask_switchAB_fMRI,872699,35214,12345,1,8,8,A5,weapon,5,9(,97912.7835717,98001.7952407,89.0116689999995,0,0
3516,3#,1,42,61,52,12,22,31,Abstract_Concrete_6tasks_simseq_2seq_listtask_switchAB_fMRI,872699,35214,12345,1,9,9,B2,vest,2,3#,97912.7835717,98011.7966412,99.0130694999971,0,0
1555,2@,1,41,61,52,11,22,31,Abstract_Concrete_6tasks_simseq_2seq_listtask_switchAB_fMRI,872699,35214,12345,1,10,10,A1,glasses,3,2@,97912.7835717,98022.7969295,110.013357799995,0,0
2960,3#,1,42,62,51,12,21,31,Abstract_Concrete_6tasks_simseq_2seq_listtask_switchAB_fMRI,872699,35214,12345,1,11,11,B2,vest,2,3#,97912.7835717,98031.7969362,119.013364500002,0,0
2612,9(,1,41,61,52,12,22,31,Abstract_Concrete_6tasks_simseq_2seq_listtask_switchAB_fMRI,872699,35214,12345,1,12,12,A5,weapon,5,9(,97912.7835717,98041.7948707,129.011299000005,0,0
2926,9(,1,42,61,51,12,22,32,Abstract_Concrete_6tasks_simseq_2seq_listtask_switchAB_fMRI,872699,35214,12345,1,13,13,B4,weapon,5,9(,97912.7835717,98051.7952935,139.011721800009,0,0
1801,9(,1,42,62,52,11,22,32,Abstract_Concrete_6tasks_simseq_2seq_listtask_switchAB_fMRI,872699,35214,12345,1,14,14,A5,weapon,5,9(,97912.7835717,98061.7950317,149.011460000009,0,0
2913,4$,1,42,62,52,12,21,31,Abstract_Concrete_6tasks_simseq_2seq_listtask_switchAB_fMRI,872699,35214,12345,1,15,15,B1,helmet,1,4$,97912.7835717,98070.7956019,158.0120302,0,0
2206,8*,1,42,61,52,11,22,31,Abstract_Concrete_6tasks_simseq_2seq_listtask_switchAB_fMRI,872699,35214,12345,1,16,16,A2,tools,6,8*,97912.7835717,98080.7953471,168.011775399995,0,0
2480,8*,1,42,62,52,11,21,31,Abstract_Concrete_6tasks_simseq_2seq_listtask_switchAB_fMRI,872699,35214,12345,1,17,17,B5,tools,6,8*,97912.7835717,98090.7960297,178.012457999997,0,0
3425,3#,1,42,62,52,11,22,31,Abstract_Concrete_6tasks_simseq_2seq_listtask_switchAB_fMRI,872699,35214,12345,1,18,18,A3,vest,2,3#,97912.7835717,98100.7960332,188.012461499995,0,0
2099,9(,1,41,62,52,11,21,32,Abstract_Concrete_6tasks_simseq_2seq_listtask_switchAB_fMRI,872699,35214,12345,1,19,19,B4,weapon,5,9(,97912.7835717,98111.7946384,199.011066699997,0,0
5355,4$,1,41,61,51,11,22,32,Abstract_Concrete_6tasks_simseq_2seq_listtask_switchAB_fMRI,872699,35214,12345,1,20,20,A4,helmet,1,4$,97912.7835717,98121.7949172,209.011345499996,0,0
3747,2@,1,42,62,51,11,22,31,Abstract_Concrete_6tasks_simseq_2seq_listtask_switchAB_fMRI,872699,35214,12345,1,21,21,B3,glasses,3,2@,97912.7835717,98134.7933329,222.009761199995,0,0
2840,3#,1,41,62,51,11,22,32,Abstract_Concrete_6tasks_simseq_2seq_listtask_switchAB_fMRI,872699,35214,12345,1,22,22,A3,vest,2,3#,97912.7835717,98145.7959851,233.012413400007,0,0
2743,8*,1,41,61,51,11,21,32,Abstract_Concrete_6tasks_simseq_2seq_listtask_switchAB_fMRI,872699,35214,12345,1,23,23,B5,tools,6,8*,97912.7835717,98155.7950523,243.011480600006,0,0
2271,8*,1,41,62,51,12,21,32,Abstract_Concrete_6tasks_simseq_2seq_listtask_switchAB_fMRI,872699,35214,12345,1,24,24,A2,tools,6,8*,97912.7835717,98165.7948599,253.011288199996,0,0
5046,2@,1,41,62,52,11,21,32,Abstract_Concrete_6tasks_simseq_2seq_listtask_switchAB_fMRI,872699,35214,12345,1,25,25,B3,glasses,3,2@,97912.7835717,98175.7955517,263.011979999996,0,0
2547,3#,1,41,61,51,11,21,31,Abstract_Concrete_6tasks_simseq_2seq_listtask_switchAB_fMRI,872699,35214,12345,1,26,26,A3,vest,2,3#,97912.7835717,98188.7959321,276.012360399996,0,0
3751,9(,1,41,62,52,11,22,31,Abstract_Concrete_6tasks_simseq_2seq_listtask_switchAB_fMRI,872699,35214,12345,1,27,27,B4,weapon,5,9(,97912.7835717,98198.7952505,286.011678800001,0,0
2789,3#,1,42,61,51,11,21,31,Abstract_Concrete_6tasks_simseq_2seq_listtask_switchAB_fMRI,872699,35214,12345,1,28,28,A3,vest,2,3#,97912.7835717,98209.793782,297.010210299995,0,0
3645,3#,1,42,61,52,11,21,32,Abstract_Concrete_6tasks_simseq_2seq_listtask_switchAB_fMRI,872699,35214,12345,1,29,29,B2,vest,2,3#,97912.7835717,98219.7941166,307.010544899997,0,0
1447,9(,1,41,62,51,12,21,32,Abstract_Concrete_6tasks_simseq_2seq_listtask_switchAB_fMRI,872699,35214,12345,1,30,30,A5,weapon,5,9(,97912.7835717,98230.7951069,318.011535199999,0,0
3287,4$,1,41,61,51,12,22,31,Abstract_Concrete_6tasks_simseq_2seq_listtask_switchAB_fMRI,872699,35214,12345,1,31,31,B1,helmet,1,4$,97912.7835717,98239.795188,327.011616300006,0,0
4199,4$,1,41,62,52,12,22,32,Abstract_Concrete_6tasks_simseq_2seq_listtask_switchAB_fMRI,872699,35214,12345,1,32,32,A4,helmet,1,4$,97912.7835717,98250.7952032,338.011631500005,0,0
4201,2@,1,42,61,51,12,21,31,Abstract_Concrete_6tasks_simseq_2seq_listtask_switchAB_fMRI,872699,35214,12345,1,33,33,B3,glasses,3,2@,97912.7835717,98262.7953163,350.011744600008,0,0
1824,2@,1,42,61,52,11,22,32,Abstract_Concrete_6tasks_simseq_2seq_listtask_switchAB_fMRI,872699,35214,12345,1,34,34,A1,glasses,3,2@,97912.7835717,98274.7950225,362.011450799997,0,0
3296,3#,1,42,61,52,12,22,32,Abstract_Concrete_6tasks_simseq_2seq_listtask_switchAB_fMRI,872699,35214,12345,1,35,35,B2,vest,2,3#,97912.7835717,98283.7939858,371.010414100005,0,0
2762,8*,1,41,62,51,11,22,31,Abstract_Concrete_6tasks_simseq_2seq_listtask_switchAB_fMRI,872699,35214,12345,1,36,36,A2,tools,6,8*,97912.7835717,98294.7964022,382.012830499996,0,0
1449,3#,0,41,61,52,12,22,32,Abstract_Concrete_6tasks_simseq_2seq_listtask_switchAB_fMRI,872699,35214,12345,1,37,37,B1,helmet,1,4$,97912.7835717,98304.794422,392.010850300008,98306.2585019,393.474930199998
1585,2@,1,42,61,52,12,22,32,Abstract_Concrete_6tasks_simseq_2seq_listtask_switchAB_fMRI,872699,35214,12345,1,38,38,A1,glasses,3,2@,97912.7835717,98313.7956767,401.012105000002,0,0
1711,4$,1,41,62,52,12,21,32,Abstract_Concrete_6tasks_simseq_2seq_listtask_switchAB_fMRI,872699,35214,12345,1,39,39,B1,helmet,1,4$,97912.7835717,98322.796454,410.012882299998,0,0
5971,4$,1,42,62,52,12,22,32,Abstract_Concrete_6tasks_simseq_2seq_listtask_switchAB_fMRI,872699,35214,12345,1,40,40,A4,helmet,1,4$,97912.7835717,98331.7933864,419.009814699995,0,0
4431,3#,1,41,61,51,12,21,32,Abstract_Concrete_6tasks_simseq_2seq_listtask_switchAB_fMRI,872699,35214,12345,2,1,41,B2,vest,2,3#,98395.373919,98403.3840993,8.01018029999977,0,0
1488,2@,1,41,61,51,11,21,32,Abstract_Concrete_6tasks_simseq_2seq_listtask_switchAB_fMRI,872699,35214,12345,2,2,42,A1,glasses,3,2@,98395.373919,98415.381788,20.0078689999937,0,0
8732,9(,1,42,61,51,11,22,31,Abstract_Concrete_6tasks_simseq_2seq_listtask_switchAB_fMRI,872699,35214,12345,2,3,43,B4,weapon,5,9(,98395.373919,98424.3881815,29.0142625000008,0,0
1892,2@,1,42,62,51,12,22,32,Abstract_Concrete_6tasks_simseq_2seq_listtask_switchAB_fMRI,872699,35214,12345,2,4,44,A1,glasses,3,2@,98395.373919,98440.3874012,45.0134821999964,0,0
2404,8*,1,42,62,51,12,22,31,Abstract_Concrete_6tasks_simseq_2seq_listtask_switchAB_fMRI,872699,35214,12345,2,5,45,B5,tools,6,8*,98395.373919,98449.3847923,54.0108732999943,0,0
1276,2@,1,42,62,51,11,21,32,Abstract_Concrete_6tasks_simseq_2seq_listtask_switchAB_fMRI,872699,35214,12345,2,6,46,A1,glasses,3,2@,98395.373919,98459.3865555,64.0126364999887,0,0
3585,2@,1,41,61,52,12,21,32,Abstract_Concrete_6tasks_simseq_2seq_listtask_switchAB_fMRI,872699,35214,12345,2,7,47,B3,glasses,3,2@,98395.373919,98468.3862201,73.012301099996,0,0
3016,9(,1,41,62,52,12,21,32,Abstract_Concrete_6tasks_simseq_2seq_listtask_switchAB_fMRI,872699,35214,12345,2,8,48,A5,weapon,5,9(,98395.373919,98479.3858455,84.0119264999958,0,0
2679,2@,1,41,62,52,12,22,31,Abstract_Concrete_6tasks_simseq_2seq_listtask_switchAB_fMRI,872699,35214,12345,2,9,49,B3,glasses,3,2@,98395.373919,98490.3851869,95.0112679000013,0,0
2683,9(,1,41,61,52,12,21,32,Abstract_Concrete_6tasks_simseq_2seq_listtask_switchAB_fMRI,872699,35214,12345,2,10,50,A5,weapon,5,9(,98395.373919,98500.3842099,105.010290899998,0,0
2637,3#,1,41,61,52,12,21,32,Abstract_Concrete_6tasks_simseq_2seq_listtask_switchAB_fMRI,872699,35214,12345,2,11,51,B2,vest,2,3#,98395.373919,98510.3846779,115.010758899996,0,0
2231,8*,1,41,61,51,12,22,31,Abstract_Concrete_6tasks_simseq_2seq_listtask_switchAB_fMRI,872699,35214,12345,2,12,52,A2,tools,6,8*,98395.373919,98520.3877232,125.013804199989,0,0
3343,3#,1,42,62,52,11,21,32,Abstract_Concrete_6tasks_simseq_2seq_listtask_switchAB_fMRI,872699,35214,12345,2,13,53,B2,vest,2,3#,98395.373919,98530.385361,135.011441999988,0,0
1873,9(,1,41,61,51,12,22,31,Abstract_Concrete_6tasks_simseq_2seq_listtask_switchAB_fMRI,872699,35214,12345,2,14,54,A5,weapon,5,9(,98395.373919,98541.3858181,146.011899099991,0,0
1924,4$,1,41,62,52,12,22,31,Abstract_Concrete_6tasks_simseq_2seq_listtask_switchAB_fMRI,872699,35214,12345,2,15,55,B1,helmet,1,4$,98395.373919,98550.3872043,155.013285299996,0,0
4293,4$,1,41,61,51,11,21,31,Abstract_Concrete_6tasks_simseq_2seq_listtask_switchAB_fMRI,872699,35214,12345,2,16,56,A4,helmet,1,4$,98395.373919,98559.3848921,164.010973099997,0,0
2661,2@,1,42,62,51,11,21,31,Abstract_Concrete_6tasks_simseq_2seq_listtask_switchAB_fMRI,872699,35214,12345,2,17,57,B3,glasses,3,2@,98395.373919,98571.3851149,176.011195899991,0,0
4375,3#,1,41,61,51,11,21,31,Abstract_Concrete_6tasks_simseq_2seq_listtask_switchAB_fMRI,872699,35214,12345,2,18,58,A3,vest,2,3#,98395.373919,98581.3868648,186.012945800001,0,0
2229,9(,1,42,61,51,11,21,31,Abstract_Concrete_6tasks_simseq_2seq_listtask_switchAB_fMRI,872699,35214,12345,2,19,59,B4,weapon,5,9(,98395.373919,98593.3849131,198.010994099997,0,0
3685,4$,1,41,62,52,11,22,32,Abstract_Concrete_6tasks_simseq_2seq_listtask_switchAB_fMRI,872699,35214,12345,2,20,60,A4,helmet,1,4$,98395.373919,98603.3874244,208.013505399998,0,0
1908,4$,1,42,62,52,12,21,31,Abstract_Concrete_6tasks_simseq_2seq_listtask_switchAB_fMRI,872699,35214,12345,2,21,61,B1,helmet,1,4$,98395.373919,98614.3845854,219.01066639999,0,0
1830,2@,1,41,62,52,12,21,32,Abstract_Concrete_6tasks_simseq_2seq_listtask_switchAB_fMRI,872699,35214,12345,2,22,62,A1,glasses,3,2@,98395.373919,98623.3841783,228.01025929999,0,0
1330,4$,1,42,62,52,11,21,32,Abstract_Concrete_6tasks_simseq_2seq_listtask_switchAB_fMRI,872699,35214,12345,2,23,63,B1,helmet,1,4$,98395.373919,98632.3850631,237.01114409999,0,0
1863,8*,1,42,61,52,11,22,31,Abstract_Concrete_6tasks_simseq_2seq_listtask_switchAB_fMRI,872699,35214,12345,2,24,64,A2,tools,6,8*,98395.373919,98641.3857747,246.011855699995,0,0
1729,8*,1,41,62,51,11,22,31,Abstract_Concrete_6tasks_simseq_2seq_listtask_switchAB_fMRI,872699,35214,12345,2,25,65,B5,tools,6,8*,98395.373919,98650.3850206,255.011101600001,0,0
3603,4$,1,42,61,51,12,21,32,Abstract_Concrete_6tasks_simseq_2seq_listtask_switchAB_fMRI,872699,35214,12345,2,26,66,A4,helmet,1,4$,98395.373919,98659.3866643,264.012745299988,0,0
6449,9(,1,41,61,51,11,21,31,Abstract_Concrete_6tasks_simseq_2seq_listtask_switchAB_fMRI,872699,35214,12345,2,27,67,B4,weapon,5,9(,98395.373919,98670.3870711,275.0131521,0,0
2427,3#,1,41,61,51,12,22,31,Abstract_Concrete_6tasks_simseq_2seq_listtask_switchAB_fMRI,872699,35214,12345,2,28,68,A3,vest,2,3#,98395.373919,98684.385388,289.01146899999,0,0
1380,4$,1,41,62,52,12,22,32,Abstract_Concrete_6tasks_simseq_2seq_listtask_switchAB_fMRI,872699,35214,12345,2,29,69,B1,helmet,1,4$,98395.373919,98694.3844079,299.010488899992,0,0
2635,3#,1,42,62,51,12,22,32,Abstract_Concrete_6tasks_simseq_2seq_listtask_switchAB_fMRI,872699,35214,12345,2,30,70,A3,vest,2,3#,98395.373919,98703.3869377,308.013018699989,0,0
2108,8*,1,42,62,51,12,21,31,Abstract_Concrete_6tasks_simseq_2seq_listtask_switchAB_fMRI,872699,35214,12345,2,31,71,B5,tools,6,8*,98395.373919,98713.3842943,318.0103753,0,0
1927,3#,1,42,61,51,12,21,32,Abstract_Concrete_6tasks_simseq_2seq_listtask_switchAB_fMRI,872699,35214,12345,2,32,72,A3,vest,2,3#,98395.373919,98723.3854891,328.011570099989,0,0
2297,2@,1,42,62,52,11,21,31,Abstract_Concrete_6tasks_simseq_2seq_listtask_switchAB_fMRI,872699,35214,12345,2,33,73,B3,glasses,3,2@,98395.373919,98732.3850629,337.011143899988,0,0
2781,8*,1,42,62,52,11,22,31,Abstract_Concrete_6tasks_simseq_2seq_listtask_switchAB_fMRI,872699,35214,12345,2,34,74,A2,tools,6,8*,98395.373919,98742.3855571,347.011638099997,0,0
1603,8*,1,42,62,52,11,22,31,Abstract_Concrete_6tasks_simseq_2seq_listtask_switchAB_fMRI,872699,35214,12345,2,35,75,B5,tools,6,8*,98395.373919,98752.3852021,357.011283100001,0,0
2141,9(,1,42,61,52,12,22,31,Abstract_Concrete_6tasks_simseq_2seq_listtask_switchAB_fMRI,872699,35214,12345,2,36,76,A5,weapon,5,9(,98395.373919,98761.3872555,366.013336499993,0,0
4197,9(,1,41,61,51,12,21,32,Abstract_Concrete_6tasks_simseq_2seq_listtask_switchAB_fMRI,872699,35214,12345,2,37,77,B4,weapon,5,9(,98395.373919,98771.3857188,376.011799799991,0,0
2313,8*,1,41,61,51,12,22,32,Abstract_Concrete_6tasks_simseq_2seq_listtask_switchAB_fMRI,872699,35214,12345,2,38,78,A2,tools,6,8*,98395.373919,98783.3847028,388.010783799997,0,0
2538,3#,1,41,62,51,12,22,31,Abstract_Concrete_6tasks_simseq_2seq_listtask_switchAB_fMRI,872699,35214,12345,2,39,79,B2,vest,2,3#,98395.373919,98793.3851636,398.011244599998,0,0
3444,4$,1,41,61,51,11,22,32,Abstract_Concrete_6tasks_simseq_2seq_listtask_switchAB_fMRI,872699,35214,12345,2,40,80,A4,helmet,1,4$,98395.373919,98803.3854079,408.011488899996,0,0
2038,8*,1,41,62,51,11,22,31,Abstract_Concrete_6tasks_simseq_2seq_listtask_switchAB_fMRI,872699,35214,12345,3,1,81,A2,tools,6,8*,98853.1362198,98861.1474687,8.0112489000021,0,0
1243,4$,1,41,61,51,11,21,31,Abstract_Concrete_6tasks_simseq_2seq_listtask_switchAB_fMRI,872699,35214,12345,3,2,82,B1,helmet,1,4$,98853.1362198,98871.1473418,18.0111219999962,0,0
1358,2@,1,42,61,52,12,22,31,Abstract_Concrete_6tasks_simseq_2seq_listtask_switchAB_fMRI,872699,35214,12345,3,3,83,A1,glasses,3,2@,98853.1362198,98880.1479991,27.0117792999954,0,0
2242,9(,1,41,62,52,12,22,31,Abstract_Concrete_6tasks_simseq_2seq_listtask_switchAB_fMRI,872699,35214,12345,3,4,84,B4,weapon,5,9(,98853.1362198,98889.1492453,36.0130254999967,0,0
3102,3#,1,41,61,51,12,22,32,Abstract_Concrete_6tasks_simseq_2seq_listtask_switchAB_fMRI,872699,35214,12345,3,5,85,A3,vest,2,3#,98853.1362198,98899.1490081,46.012788299995,0,0
1686,4$,1,41,62,51,11,22,31,Abstract_Concrete_6tasks_simseq_2seq_listtask_switchAB_fMRI,872699,35214,12345,3,6,86,B1,helmet,1,4$,98853.1362198,98910.148517,57.0122971999954,0,0
2583,4$,1,42,61,52,12,22,31,Abstract_Concrete_6tasks_simseq_2seq_listtask_switchAB_fMRI,872699,35214,12345,3,7,87,A4,helmet,1,4$,98853.1362198,98919.1471024,66.0108826000069,0,0
1130,4$,1,41,62,52,11,21,32,Abstract_Concrete_6tasks_simseq_2seq_listtask_switchAB_fMRI,872699,35214,12345,3,8,88,B1,helmet,1,4$,98853.1362198,98929.14939,76.0131702000072,0,0
2150,9(,1,42,61,52,12,22,32,Abstract_Concrete_6tasks_simseq_2seq_listtask_switchAB_fMRI,872699,35214,12345,3,9,89,A5,weapon,5,9(,98853.1362198,98938.1495044,85.0132846000051,0,0
1362,8*,1,42,62,51,11,22,31,Abstract_Concrete_6tasks_simseq_2seq_listtask_switchAB_fMRI,872699,35214,12345,3,10,90,B5,tools,6,8*,98853.1362198,98948.1481679,95.0119481000002,0,0
1407,2@,1,41,61,51,11,21,31,Abstract_Concrete_6tasks_simseq_2seq_listtask_switchAB_fMRI,872699,35214,12345,3,11,91,A1,glasses,3,2@,98853.1362198,98957.1470964,104.010876600005,0,0
3904,2@,1,41,62,51,11,22,32,Abstract_Concrete_6tasks_simseq_2seq_listtask_switchAB_fMRI,872699,35214,12345,3,12,92,B3,glasses,3,2@,98853.1362198,98966.1474667,113.011246900001,0,0
2861,3#,1,42,61,51,11,21,32,Abstract_Concrete_6tasks_simseq_2seq_listtask_switchAB_fMRI,872699,35214,12345,3,13,93,A3,vest,2,3#,98853.1362198,98977.1492829,124.013063100007,0,0
2490,3#,1,41,62,52,11,22,32,Abstract_Concrete_6tasks_simseq_2seq_listtask_switchAB_fMRI,872699,35214,12345,3,14,94,B2,vest,2,3#,98853.1362198,98987.1472722,134.011052400005,0,0
1730,9(,1,41,62,52,12,21,32,Abstract_Concrete_6tasks_simseq_2seq_listtask_switchAB_fMRI,872699,35214,12345,3,15,95,A5,weapon,5,9(,98853.1362198,98997.1472905,144.011070699999,0,0
4455,9(,1,41,62,51,12,21,32,Abstract_Concrete_6tasks_simseq_2seq_listtask_switchAB_fMRI,872699,35214,12345,3,16,96,B4,weapon,5,9(,98853.1362198,99006.1478445,153.011624699997,0,0
1880,8*,1,42,62,51,11,22,32,Abstract_Concrete_6tasks_simseq_2seq_listtask_switchAB_fMRI,872699,35214,12345,3,17,97,A2,tools,6,8*,98853.1362198,99018.1469787,165.010758899996,0,0
2873,2@,1,42,61,52,11,22,31,Abstract_Concrete_6tasks_simseq_2seq_listtask_switchAB_fMRI,872699,35214,12345,3,18,98,B3,glasses,3,2@,98853.1362198,99027.1475034,174.011283600004,0,0
3040,4$,1,42,61,51,11,21,32,Abstract_Concrete_6tasks_simseq_2seq_listtask_switchAB_fMRI,872699,35214,12345,3,19,99,A4,helmet,1,4$,98853.1362198,99037.1478223,184.011602500002,0,0
1695,9(,1,42,62,51,12,21,32,Abstract_Concrete_6tasks_simseq_2seq_listtask_switchAB_fMRI,872699,35214,12345,3,20,100,B4,weapon,5,9(,98853.1362198,99048.1504584,195.014238600008,0,0
1320,2@,1,42,61,52,11,21,32,Abstract_Concrete_6tasks_simseq_2seq_listtask_switchAB_fMRI,872699,35214,12345,3,21,101,A1,glasses,3,2@,98853.1362198,99057.1491858,204.012965999995,0,0
1425,8*,1,42,61,51,12,21,32,Abstract_Concrete_6tasks_simseq_2seq_listtask_switchAB_fMRI,872699,35214,12345,3,22,102,B5,tools,6,8*,98853.1362198,99066.149236,213.013016199999,0,0
1935,3#,1,42,61,51,12,22,31,Abstract_Concrete_6tasks_simseq_2seq_listtask_switchAB_fMRI,872699,35214,12345,3,23,103,A3,vest,2,3#,98853.1362198,99075.1483143,222.012094499994,0,0
2411,4$,1,41,62,52,12,22,31,Abstract_Concrete_6tasks_simseq_2seq_listtask_switchAB_fMRI,872699,35214,12345,3,24,104,B1,helmet,1,4$,98853.1362198,99084.1469119,231.010692099997,0,0
3101,4$,1,42,62,51,11,21,32,Abstract_Concrete_6tasks_simseq_2seq_listtask_switchAB_fMRI,872699,35214,12345,3,25,105,A4,helmet,1,4$,98853.1362198,99094.1492391,241.013019300008,0,0
3051,2@,1,41,61,51,12,22,32,Abstract_Concrete_6tasks_simseq_2seq_listtask_switchAB_fMRI,872699,35214,12345,3,26,106,B3,glasses,3,2@,98853.1362198,99105.1469463,252.010726499997,0,0
1751,8*,1,41,62,52,11,22,32,Abstract_Concrete_6tasks_simseq_2seq_listtask_switchAB_fMRI,872699,35214,12345,3,27,107,A2,tools,6,8*,98853.1362198,99116.1482955,263.012075699997,0,0
2205,9(,1,42,62,51,11,22,31,Abstract_Concrete_6tasks_simseq_2seq_listtask_switchAB_fMRI,872699,35214,12345,3,28,108,B4,weapon,5,9(,98853.1362198,99125.1464065,272.010186700005,0,0
1625,4$,1,41,61,51,11,22,32,Abstract_Concrete_6tasks_simseq_2seq_listtask_switchAB_fMRI,872699,35214,12345,3,29,109,A4,helmet,1,4$,98853.1362198,99135.1491655,282.0129457,0,0
1340,8*,1,41,61,51,11,22,32,Abstract_Concrete_6tasks_simseq_2seq_listtask_switchAB_fMRI,872699,35214,12345,3,30,110,B5,tools,6,8*,98853.1362198,99144.1469258,291.010706000001,0,0
2874,2@,1,42,62,52,12,22,32,Abstract_Concrete_6tasks_simseq_2seq_listtask_switchAB_fMRI,872699,35214,12345,3,31,111,A1,glasses,3,2@,98853.1362198,99153.1480863,300.011866500005,0,0
2900,3#,1,42,61,52,12,22,31,Abstract_Concrete_6tasks_simseq_2seq_listtask_switchAB_fMRI,872699,35214,12345,3,32,112,B2,vest,2,3#,98853.1362198,99163.1471351,310.010915299994,0,0
1771,9(,1,41,62,51,11,22,32,Abstract_Concrete_6tasks_simseq_2seq_listtask_switchAB_fMRI,872699,35214,12345,3,33,113,A5,weapon,5,9(,98853.1362198,99173.1479998,320.011780000001,0,0
2341,3#,1,41,62,52,11,21,31,Abstract_Concrete_6tasks_simseq_2seq_listtask_switchAB_fMRI,872699,35214,12345,3,34,114,B2,vest,2,3#,98853.1362198,99182.1467916,329.010571799998,0,0
1769,9(,1,42,61,51,12,21,32,Abstract_Concrete_6tasks_simseq_2seq_listtask_switchAB_fMRI,872699,35214,12345,3,35,115,A5,weapon,5,9(,98853.1362198,99192.1482212,339.012001399999,0,0
2020,8*,1,41,62,52,12,22,32,Abstract_Concrete_6tasks_simseq_2seq_listtask_switchAB_fMRI,872699,35214,12345,3,36,116,B5,tools,6,8*,98853.1362198,99201.1517725,348.015552700002,0,0
2744,8*,1,41,61,51,11,21,31,Abstract_Concrete_6tasks_simseq_2seq_listtask_switchAB_fMRI,872699,35214,12345,3,37,117,A2,tools,6,8*,98853.1362198,99211.1496247,358.013404900004,0,0
2841,2@,1,41,62,52,11,22,31,Abstract_Concrete_6tasks_simseq_2seq_listtask_switchAB_fMRI,872699,35214,12345,3,38,118,B3,glasses,3,2@,98853.1362198,99221.1468642,368.010644399998,0,0
2819,3#,1,42,61,52,11,21,31,Abstract_Concrete_6tasks_simseq_2seq_listtask_switchAB_fMRI,872699,35214,12345,3,39,119,A3,vest,2,3#,98853.1362198,99231.1470288,378.010808999999,0,0
2322,3#,1,42,62,51,11,21,32,Abstract_Concrete_6tasks_simseq_2seq_listtask_switchAB_fMRI,872699,35214,12345,3,40,120,B2,vest,2,3#,98853.1362198,99241.146756,388.010536200003,0,0
2751,2@,1,42,61,52,11,22,31,Abstract_Concrete_6tasks_simseq_2seq_listtask_switchAB_fMRI,872699,35214,12345,4,1,121,B3,glasses,3,2@,99478.6906131,99486.7022004,8.01158730000316,0,0
3064,4$,1,42,61,52,12,21,31,Abstract_Concrete_6tasks_simseq_2seq_listtask_switchAB_fMRI,872699,35214,12345,4,2,122,A4,helmet,1,4$,99478.6906131,99496.7017518,18.011138700007,0,0
1861,4$,1,42,61,51,11,22,32,Abstract_Concrete_6tasks_simseq_2seq_listtask_switchAB_fMRI,872699,35214,12345,4,3,123,B1,helmet,1,4$,99478.6906131,99507.703317,29.0127039000072,0,0
1764,9(,1,42,62,52,11,22,31,Abstract_Concrete_6tasks_simseq_2seq_listtask_switchAB_fMRI,872699,35214,12345,4,4,124,A5,weapon,5,9(,99478.6906131,99516.702108,38.0114948999981,0,0
1355,8*,1,42,61,51,12,22,31,Abstract_Concrete_6tasks_simseq_2seq_listtask_switchAB_fMRI,872699,35214,12345,4,5,125,B5,tools,6,8*,99478.6906131,99525.7001236,47.0095105000073,0,0
1102,2@,1,42,62,52,12,22,32,Abstract_Concrete_6tasks_simseq_2seq_listtask_switchAB_fMRI,872699,35214,12345,4,6,126,A1,glasses,3,2@,99478.6906131,99534.7037101,56.0130970000027,0,0
1092,4$,1,42,61,52,12,22,31,Abstract_Concrete_6tasks_simseq_2seq_listtask_switchAB_fMRI,872699,35214,12345,4,7,127,B1,helmet,1,4$,99478.6906131,99543.702386,65.0117729000049,0,0
1649,2@,1,42,61,52,11,21,32,Abstract_Concrete_6tasks_simseq_2seq_listtask_switchAB_fMRI,872699,35214,12345,4,8,128,A1,glasses,3,2@,99478.6906131,99552.7012856,74.0106724999932,0,0
2528,3#,1,42,62,52,12,21,31,Abstract_Concrete_6tasks_simseq_2seq_listtask_switchAB_fMRI,872699,35214,12345,4,9,129,B2,vest,2,3#,99478.6906131,99561.7039944,83.0133812999993,0,0
2136,2@,1,42,61,52,12,21,32,Abstract_Concrete_6tasks_simseq_2seq_listtask_switchAB_fMRI,872699,35214,12345,4,10,130,A1,glasses,3,2@,99478.6906131,99571.7022275,93.0116144000058,0,0
1388,4$,1,42,61,51,12,21,32,Abstract_Concrete_6tasks_simseq_2seq_listtask_switchAB_fMRI,872699,35214,12345,4,11,131,B1,helmet,1,4$,99478.6906131,99581.7022932,103.011680099997,0,0
1081,2@,1,41,61,51,11,22,32,Abstract_Concrete_6tasks_simseq_2seq_listtask_switchAB_fMRI,872699,35214,12345,4,12,132,A1,glasses,3,2@,99478.6906131,99590.7042421,112.013628999994,0,0
2387,8*,1,42,62,51,11,22,31,Abstract_Concrete_6tasks_simseq_2seq_listtask_switchAB_fMRI,872699,35214,12345,4,13,133,B5,tools,6,8*,99478.6906131,99599.7042444,121.013631299997,0,0
1547,8*,1,41,62,51,11,22,32,Abstract_Concrete_6tasks_simseq_2seq_listtask_switchAB_fMRI,872699,35214,12345,4,14,134,A2,tools,6,8*,99478.6906131,99609.7033514,131.012738300007,0,0
1161,4$,1,42,61,52,11,22,32,Abstract_Concrete_6tasks_simseq_2seq_listtask_switchAB_fMRI,872699,35214,12345,4,15,135,B1,helmet,1,4$,99478.6906131,99618.7030836,140.012470500005,0,0
2645,3#,1,41,61,52,11,21,32,Abstract_Concrete_6tasks_simseq_2seq_listtask_switchAB_fMRI,872699,35214,12345,4,16,136,A3,vest,2,3#,99478.6906131,99627.7020933,149.011480200003,0,0
1763,3#,1,42,62,52,11,21,32,Abstract_Concrete_6tasks_simseq_2seq_listtask_switchAB_fMRI,872699,35214,12345,4,17,137,B2,vest,2,3#,99478.6906131,99637.7024561,159.011843,0,0
2089,8*,1,41,62,51,12,21,32,Abstract_Concrete_6tasks_simseq_2seq_listtask_switchAB_fMRI,872699,35214,12345,4,18,138,A2,tools,6,8*,99478.6906131,99646.7024853,168.011872200004,0,0
1802,2@,1,42,61,52,12,22,32,Abstract_Concrete_6tasks_simseq_2seq_listtask_switchAB_fMRI,872699,35214,12345,4,19,139,B3,glasses,3,2@,99478.6906131,99656.7021664,178.011553300006,0,0
1985,9(,1,42,61,52,11,22,32,Abstract_Concrete_6tasks_simseq_2seq_listtask_switchAB_fMRI,872699,35214,12345,4,20,140,A5,weapon,5,9(,99478.6906131,99665.7042658,187.0136527,0,0
3536,9(,1,41,62,51,11,21,31,Abstract_Concrete_6tasks_simseq_2seq_listtask_switchAB_fMRI,872699,35214,12345,4,21,141,B4,weapon,5,9(,99478.6906131,99674.7042858,196.013672700006,0,0
2981,3#,1,41,61,51,11,22,31,Abstract_Concrete_6tasks_simseq_2seq_listtask_switchAB_fMRI,872699,35214,12345,4,22,142,A3,vest,2,3#,99478.6906131,99685.7020874,207.011474300001,0,0
1542,2@,1,42,62,52,11,22,31,Abstract_Concrete_6tasks_simseq_2seq_listtask_switchAB_fMRI,872699,35214,12345,4,23,143,B3,glasses,3,2@,99478.6906131,99695.7020984,217.011485299998,0,0
2368,4$,1,41,62,52,11,21,31,Abstract_Concrete_6tasks_simseq_2seq_listtask_switchAB_fMRI,872699,35214,12345,4,24,144,A4,helmet,1,4$,99478.6906131,99704.701658,226.011044900006,0,0
1843,3#,1,41,62,52,12,21,31,Abstract_Concrete_6tasks_simseq_2seq_listtask_switchAB_fMRI,872699,35214,12345,4,25,145,B2,vest,2,3#,99478.6906131,99714.7019615,236.011348400003,0,0
3997,8*,1,41,62,51,11,21,32,Abstract_Concrete_6tasks_simseq_2seq_listtask_switchAB_fMRI,872699,35214,12345,4,26,146,A2,tools,6,8*,99478.6906131,99723.7017048,245.011091699998,0,0
1969,8*,1,42,61,51,12,22,31,Abstract_Concrete_6tasks_simseq_2seq_listtask_switchAB_fMRI,872699,35214,12345,4,27,147,B5,tools,6,8*,99478.6906131,99735.7032227,257.012609600002,0,0
2597,8*,1,41,62,52,12,21,31,Abstract_Concrete_6tasks_simseq_2seq_listtask_switchAB_fMRI,872699,35214,12345,4,28,148,A2,tools,6,8*,99478.6906131,99744.7032518,266.012638700005,0,0
2785,9(,1,42,62,51,12,21,31,Abstract_Concrete_6tasks_simseq_2seq_listtask_switchAB_fMRI,872699,35214,12345,4,29,149,B4,weapon,5,9(,99478.6906131,99754.7011671,276.010553999993,0,0
3067,9(,1,42,61,51,11,22,31,Abstract_Concrete_6tasks_simseq_2seq_listtask_switchAB_fMRI,872699,35214,12345,4,30,150,A5,weapon,5,9(,99478.6906131,99764.7019266,286.011313499999,0,0
1922,9(,1,42,62,52,11,22,32,Abstract_Concrete_6tasks_simseq_2seq_listtask_switchAB_fMRI,872699,35214,12345,4,31,151,B4,weapon,5,9(,99478.6906131,99775.70257,297.011956899994,0,0
1789,3#,1,42,61,52,11,21,31,Abstract_Concrete_6tasks_simseq_2seq_listtask_switchAB_fMRI,872699,35214,12345,4,32,152,A3,vest,2,3#,99478.6906131,99784.7031269,306.0125138,0,0
1602,8*,1,42,61,51,12,21,31,Abstract_Concrete_6tasks_simseq_2seq_listtask_switchAB_fMRI,872699,35214,12345,4,33,153,B5,tools,6,8*,99478.6906131,99793.7011082,315.010495099996,0,0
2247,4$,1,41,62,52,12,22,31,Abstract_Concrete_6tasks_simseq_2seq_listtask_switchAB_fMRI,872699,35214,12345,4,34,154,A4,helmet,1,4$,99478.6906131,99802.7014442,324.010831100008,0,0
1481,2@,1,41,61,51,12,21,32,Abstract_Concrete_6tasks_simseq_2seq_listtask_switchAB_fMRI,872699,35214,12345,4,35,155,B3,glasses,3,2@,99478.6906131,99812.7015688,334.010955699996,0,0
1655,9(,1,42,62,52,12,21,32,Abstract_Concrete_6tasks_simseq_2seq_listtask_switchAB_fMRI,872699,35214,12345,4,36,156,A5,weapon,5,9(,99478.6906131,99821.7018039,343.011190799996,0,0
1279,3#,1,41,61,52,11,22,31,Abstract_Concrete_6tasks_simseq_2seq_listtask_switchAB_fMRI,872699,35214,12345,4,37,157,B2,vest,2,3#,99478.6906131,99830.7030925,352.0124794,0,0
1982,3#,1,42,61,52,11,22,32,Abstract_Concrete_6tasks_simseq_2seq_listtask_switchAB_fMRI,872699,35214,12345,4,38,158,A3,vest,2,3#,99478.6906131,99839.7025548,361.011941699995,0,0
2395,9(,1,41,62,51,12,21,32,Abstract_Concrete_6tasks_simseq_2seq_listtask_switchAB_fMRI,872699,35214,12345,4,39,159,B4,weapon,5,9(,99478.6906131,99848.7017093,370.011096200004,0,0
1854,4$,1,41,61,52,11,22,32,Abstract_Concrete_6tasks_simseq_2seq_listtask_switchAB_fMRI,872699,35214,12345,4,40,160,A4,helmet,1,4$,99478.6906131,99858.7022114,380.0115983,0,0
1065,3#,1,42,61,52,11,22,31,Abstract_Concrete_6tasks_simseq_2seq_listtask_switchAB_fMRI,872699,35214,12345,5,1,161,B2,vest,2,3#,99935.1339057,99943.14587,8.01196429999254,0,0
1463,4$,1,41,61,52,12,21,32,Abstract_Concrete_6tasks_simseq_2seq_listtask_switchAB_fMRI,872699,35214,12345,5,2,162,A4,helmet,1,4$,99935.1339057,99952.1468072,17.0129014999984,0,0
1051,2@,1,42,61,51,11,21,31,Abstract_Concrete_6tasks_simseq_2seq_listtask_switchAB_fMRI,872699,35214,12345,5,3,163,B3,glasses,3,2@,99935.1339057,99961.1460375,26.012131800002,0,0
2049,2@,1,42,61,52,12,21,31,Abstract_Concrete_6tasks_simseq_2seq_listtask_switchAB_fMRI,872699,35214,12345,5,4,164,A1,glasses,3,2@,99935.1339057,99970.1475362,35.0136305000051,0,0
2120,8*,1,41,61,52,12,21,31,Abstract_Concrete_6tasks_simseq_2seq_listtask_switchAB_fMRI,872699,35214,12345,5,5,165,B5,tools,6,8*,99935.1339057,99980.1453831,45.0114773999958,0,0
2093,3#,1,42,62,51,12,21,31,Abstract_Concrete_6tasks_simseq_2seq_listtask_switchAB_fMRI,872699,35214,12345,5,6,166,A3,vest,2,3#,99935.1339057,99990.1452928,55.0113871000067,0,0
1168,2@,1,42,61,52,11,22,32,Abstract_Concrete_6tasks_simseq_2seq_listtask_switchAB_fMRI,872699,35214,12345,5,7,167,B3,glasses,3,2@,99935.1339057,100000.1455129,65.0116071999946,0,0
1643,8*,1,41,61,52,11,21,32,Abstract_Concrete_6tasks_simseq_2seq_listtask_switchAB_fMRI,872699,35214,12345,5,8,168,A2,tools,6,8*,99935.1339057,100009.1477885,74.0138828000054,0,0
1089,3#,1,41,61,52,11,22,32,Abstract_Concrete_6tasks_simseq_2seq_listtask_switchAB_fMRI,872699,35214,12345,5,9,169,B2,vest,2,3#,99935.1339057,100018.1446041,83.0106984000013,0,0
1926,9(,1,41,62,52,11,22,32,Abstract_Concrete_6tasks_simseq_2seq_listtask_switchAB_fMRI,872699,35214,12345,5,10,170,A5,weapon,5,9(,99935.1339057,100027.1452356,92.0113298999931,0,0
4807,4$,1,41,62,51,11,22,32,Abstract_Concrete_6tasks_simseq_2seq_listtask_switchAB_fMRI,872699,35214,12345,5,11,171,B1,helmet,1,4$,99935.1339057,100036.1467917,101.012885999997,0,0
1319,2@,1,41,61,51,12,21,31,Abstract_Concrete_6tasks_simseq_2seq_listtask_switchAB_fMRI,872699,35214,12345,5,12,172,A1,glasses,3,2@,99935.1339057,100048.1460257,113.012119999999,0,0
2165,8*,1,41,62,52,12,21,32,Abstract_Concrete_6tasks_simseq_2seq_listtask_switchAB_fMRI,872699,35214,12345,5,13,173,B5,tools,6,8*,99935.1339057,100057.1448763,122.010970599993,0,0
2147,9(,1,42,61,51,12,21,31,Abstract_Concrete_6tasks_simseq_2seq_listtask_switchAB_fMRI,872699,35214,12345,5,14,174,A5,weapon,5,9(,99935.1339057,100067.1461781,132.012272399996,0,0
1868,9(,1,41,61,51,12,22,32,Abstract_Concrete_6tasks_simseq_2seq_listtask_switchAB_fMRI,872699,35214,12345,5,15,175,B4,weapon,5,9(,99935.1339057,100077.1481588,142.014253100002,0,0
1876,8*,1,41,61,52,12,21,32,Abstract_Concrete_6tasks_simseq_2seq_listtask_switchAB_fMRI,872699,35214,12345,5,16,176,A2,tools,6,8*,99935.1339057,100086.1472078,151.013302099993,0,0
1753,4$,1,42,62,51,12,22,31,Abstract_Concrete_6tasks_simseq_2seq_listtask_switchAB_fMRI,872699,35214,12345,5,17,177,B1,helmet,1,4$,99935.1339057,100095.1445952,160.010689500006,0,0
1377,8*,1,42,62,52,11,22,32,Abstract_Concrete_6tasks_simseq_2seq_listtask_switchAB_fMRI,872699,35214,12345,5,18,178,A2,tools,6,8*,99935.1339057,100104.146872,169.012966299997,0,0
1406,2@,1,41,61,51,11,22,32,Abstract_Concrete_6tasks_simseq_2seq_listtask_switchAB_fMRI,872699,35214,12345,5,19,179,B3,glasses,3,2@,99935.1339057,100113.1450291,178.011123399992,0,0
1984,2@,1,41,62,52,11,22,32,Abstract_Concrete_6tasks_simseq_2seq_listtask_switchAB_fMRI,872699,35214,12345,5,20,180,A1,glasses,3,2@,99935.1339057,100122.1452394,187.011333699993,0,0
2627,9(,1,41,62,52,12,21,31,Abstract_Concrete_6tasks_simseq_2seq_listtask_switchAB_fMRI,872699,35214,12345,5,21,181,B4,weapon,5,9(,99935.1339057,100131.1491577,196.015251999997,0,0
1296,2@,1,42,62,52,12,21,32,Abstract_Concrete_6tasks_simseq_2seq_listtask_switchAB_fMRI,872699,35214,12345,5,22,182,A1,glasses,3,2@,99935.1339057,100141.1452443,206.011338600001,0,0
1343,8*,1,42,62,51,11,22,32,Abstract_Concrete_6tasks_simseq_2seq_listtask_switchAB_fMRI,872699,35214,12345,5,23,183,B5,tools,6,8*,99935.1339057,100150.1474116,215.013505900002,0,0
2716,4$,1,42,62,52,12,22,31,Abstract_Concrete_6tasks_simseq_2seq_listtask_switchAB_fMRI,872699,35214,12345,5,24,184,A4,helmet,1,4$,99935.1339057,100159.1474225,224.013516799998,0,0
1481,9(,1,41,61,52,12,22,31,Abstract_Concrete_6tasks_simseq_2seq_listtask_switchAB_fMRI,872699,35214,12345,5,25,185,B4,weapon,5,9(,99935.1339057,100169.1464225,234.012516799994,0,0
1711,9(,1,41,61,51,12,21,31,Abstract_Concrete_6tasks_simseq_2seq_listtask_switchAB_fMRI,872699,35214,12345,5,26,186,A5,weapon,5,9(,99935.1339057,100178.1453975,243.011491800004,0,0
1555,4$,1,42,61,51,12,22,32,Abstract_Concrete_6tasks_simseq_2seq_listtask_switchAB_fMRI,872699,35214,12345,5,27,187,B1,helmet,1,4$,99935.1339057,100187.1451841,252.011278399994,0,0
1661,3#,1,41,62,51,11,22,32,Abstract_Concrete_6tasks_simseq_2seq_listtask_switchAB_fMRI,872699,35214,12345,5,28,188,A3,vest,2,3#,99935.1339057,100196.145523,261.011617299999,0,0
1895,2@,1,42,61,51,11,22,31,Abstract_Concrete_6tasks_simseq_2seq_listtask_switchAB_fMRI,872699,35214,12345,5,29,189,B3,glasses,3,2@,99935.1339057,100205.1449367,270.011031000002,0,0
2121,3#,1,41,61,52,12,22,31,Abstract_Concrete_6tasks_simseq_2seq_listtask_switchAB_fMRI,872699,35214,12345,5,30,190,A3,vest,2,3#,99935.1339057,100214.1457421,279.011836399994,0,0
1098,3#,1,41,62,51,11,21,31,Abstract_Concrete_6tasks_simseq_2seq_listtask_switchAB_fMRI,872699,35214,12345,5,31,191,B2,vest,2,3#,99935.1339057,100224.145827,289.0119213,0,0
2449,8*,1,42,61,52,12,21,32,Abstract_Concrete_6tasks_simseq_2seq_listtask_switchAB_fMRI,872699,35214,12345,5,32,192,A2,tools,6,8*,99935.1339057,100233.1467475,298.012841799995,0,0
1648,9(,1,42,61,51,11,22,31,Abstract_Concrete_6tasks_simseq_2seq_listtask_switchAB_fMRI,872699,35214,12345,5,33,193,B4,weapon,5,9(,99935.1339057,100243.1444491,308.0105434,0,0
2249,4$,1,42,62,51,12,21,32,Abstract_Concrete_6tasks_simseq_2seq_listtask_switchAB_fMRI,872699,35214,12345,5,34,194,A4,helmet,1,4$,99935.1339057,100252.1466974,317.012791700006,0,0
1242,8*,1,41,62,51,12,22,32,Abstract_Concrete_6tasks_simseq_2seq_listtask_switchAB_fMRI,872699,35214,12345,5,35,195,B5,tools,6,8*,99935.1339057,100262.1461907,327.012285000004,0,0
1917,3#,1,41,61,51,11,21,32,Abstract_Concrete_6tasks_simseq_2seq_listtask_switchAB_fMRI,872699,35214,12345,5,36,196,A3,vest,2,3#,99935.1339057,100271.1444565,336.010550799998,0,0
1277,3#,1,41,62,51,12,22,32,Abstract_Concrete_6tasks_simseq_2seq_listtask_switchAB_fMRI,872699,35214,12345,5,37,197,B2,vest,2,3#,99935.1339057,100280.1448309,345.010925199997,0,0
1763,4$,1,42,61,51,12,21,31,Abstract_Concrete_6tasks_simseq_2seq_listtask_switchAB_fMRI,872699,35214,12345,5,38,198,A4,helmet,1,4$,99935.1339057,100289.1455801,354.011674399997,0,0
1113,4$,1,41,61,51,12,22,32,Abstract_Concrete_6tasks_simseq_2seq_listtask_switchAB_fMRI,872699,35214,12345,5,39,199,B1,helmet,1,4$,99935.1339057,100298.1429134,363.009007700006,0,0
1764,9(,1,41,61,51,11,22,31,Abstract_Concrete_6tasks_simseq_2seq_listtask_switchAB_fMRI,872699,35214,12345,5,40,200,A5,weapon,5,9(,99935.1339057,100307.1455265,372.011620799996,0,0
3696,8*,1,41,62,52,12,21,32,Abstract_Concrete_6tasks_simseq_2seq_listtask_switchAB_fMRI,872699,35214,12345,6,1,201,A2,tools,6,8*,100355.2982826,100363.3114033,8.01312070000859,0,0
3774,8*,1,41,62,51,12,22,32,Abstract_Concrete_6tasks_simseq_2seq_listtask_switchAB_fMRI,872699,35214,12345,6,2,202,B5,tools,6,8*,100355.2982826,100374.3086101,19.0103275000001,0,0
2466,9(,1,42,61,52,12,21,31,Abstract_Concrete_6tasks_simseq_2seq_listtask_switchAB_fMRI,872699,35214,12345,6,3,203,A5,weapon,5,9(,100355.2982826,100385.311264,30.0129814000102,0,0
1075,3#,1,42,62,52,11,22,32,Abstract_Concrete_6tasks_simseq_2seq_listtask_switchAB_fMRI,872699,35214,12345,6,4,204,B2,vest,2,3#,100355.2982826,100395.3092205,40.010937900006,0,0
1347,2@,1,41,62,51,12,22,32,Abstract_Concrete_6tasks_simseq_2seq_listtask_switchAB_fMRI,872699,35214,12345,6,5,205,A1,glasses,3,2@,100355.2982826,100404.3112361,49.0129535000015,0,0
1368,9(,1,41,62,51,12,22,32,Abstract_Concrete_6tasks_simseq_2seq_listtask_switchAB_fMRI,872699,35214,12345,6,6,206,B4,weapon,5,9(,100355.2982826,100413.3094124,58.011129800012,0,0
2323,3#,1,41,62,52,11,21,31,Abstract_Concrete_6tasks_simseq_2seq_listtask_switchAB_fMRI,872699,35214,12345,6,7,207,A3,vest,2,3#,100355.2982826,100422.3094681,67.0111854999996,0,0
1462,3#,1,42,61,52,11,22,32,Abstract_Concrete_6tasks_simseq_2seq_listtask_switchAB_fMRI,872699,35214,12345,6,8,208,B2,vest,2,3#,100355.2982826,100432.3100911,77.0118084999995,0,0
1879,8*,1,41,62,52,12,22,31,Abstract_Concrete_6tasks_simseq_2seq_listtask_switchAB_fMRI,872699,35214,12345,6,9,209,A2,tools,6,8*,100355.2982826,100441.310003,86.0117204000126,0,0
1658,8*,1,41,62,51,11,22,32,Abstract_Concrete_6tasks_simseq_2seq_listtask_switchAB_fMRI,872699,35214,12345,6,10,210,B5,tools,6,8*,100355.2982826,100450.3088782,95.0105956000043,0,0
1561,9(,1,42,61,52,12,21,32,Abstract_Concrete_6tasks_simseq_2seq_listtask_switchAB_fMRI,872699,35214,12345,6,11,211,A5,weapon,5,9(,100355.2982826,100459.3125129,104.014230300003,0,0
1608,2@,1,42,62,52,11,21,31,Abstract_Concrete_6tasks_simseq_2seq_listtask_switchAB_fMRI,872699,35214,12345,6,12,212,B3,glasses,3,2@,100355.2982826,100468.3116165,113.013333900002,0,0
2136,4$,1,42,62,51,11,22,31,Abstract_Concrete_6tasks_simseq_2seq_listtask_switchAB_fMRI,872699,35214,12345,6,13,213,A4,helmet,1,4$,100355.2982826,100477.3115303,122.013247700001,0,0
2168,9(,1,41,61,52,12,21,31,Abstract_Concrete_6tasks_simseq_2seq_listtask_switchAB_fMRI,872699,35214,12345,6,14,214,B4,weapon,5,9(,100355.2982826,100487.3107028,132.012420200001,0,0
1479,3#,1,41,61,52,12,22,31,Abstract_Concrete_6tasks_simseq_2seq_listtask_switchAB_fMRI,872699,35214,12345,6,15,215,A3,vest,2,3#,100355.2982826,100497.3112171,142.012934500002,0,0
1715,9(,1,41,62,51,12,21,32,Abstract_Concrete_6tasks_simseq_2seq_listtask_switchAB_fMRI,872699,35214,12345,6,16,216,B4,weapon,5,9(,100355.2982826,100506.3115602,151.01327760001,0,0
1421,8*,1,41,62,51,11,21,31,Abstract_Concrete_6tasks_simseq_2seq_listtask_switchAB_fMRI,872699,35214,12345,6,17,217,A2,tools,6,8*,100355.2982826,100515.3113032,160.013020600003,0,0
1369,2@,1,42,62,51,12,21,31,Abstract_Concrete_6tasks_simseq_2seq_listtask_switchAB_fMRI,872699,35214,12345,6,18,218,B3,glasses,3,2@,100355.2982826,100524.3116448,169.013362199999,0,0
1750,4$,1,41,61,52,12,21,32,Abstract_Concrete_6tasks_simseq_2seq_listtask_switchAB_fMRI,872699,35214,12345,6,19,219,A4,helmet,1,4$,100355.2982826,100533.3116342,178.013351600006,0,0
1197,2@,1,41,61,51,11,22,31,Abstract_Concrete_6tasks_simseq_2seq_listtask_switchAB_fMRI,872699,35214,12345,6,20,220,B3,glasses,3,2@,100355.2982826,100542.3101193,187.01183670001,0,0
939,2@,1,42,62,52,11,21,32,Abstract_Concrete_6tasks_simseq_2seq_listtask_switchAB_fMRI,872699,35214,12345,6,21,221,A1,glasses,3,2@,100355.2982826,100551.3098384,196.011555800011,0,0
1779,8*,1,42,61,52,11,22,32,Abstract_Concrete_6tasks_simseq_2seq_listtask_switchAB_fMRI,872699,35214,12345,6,22,222,B5,tools,6,8*,100355.2982826,100559.310749,204.012466400003,0,0
8973,8*,0,42,61,52,12,22,32,Abstract_Concrete_6tasks_simseq_2seq_listtask_switchAB_fMRI,872699,35214,12345,6,23,223,A4,helmet,1,4$,100355.2982826,100568.3114646,213.01318200001,100577.3033559,222.00507330001
1416,2@,1,41,61,51,12,21,31,Abstract_Concrete_6tasks_simseq_2seq_listtask_switchAB_fMRI,872699,35214,12345,6,24,224,B3,glasses,3,2@,100355.2982826,100585.3108446,230.012562000004,0,0
1432,2@,1,41,62,52,11,21,32,Abstract_Concrete_6tasks_simseq_2seq_listtask_switchAB_fMRI,872699,35214,12345,6,25,225,A1,glasses,3,2@,100355.2982826,100594.3113787,239.01309610001,0,0
2205,3#,1,42,61,52,12,22,32,Abstract_Concrete_6tasks_simseq_2seq_listtask_switchAB_fMRI,872699,35214,12345,6,26,226,B2,vest,2,3#,100355.2982826,100603.3086325,248.010349900011,0,0
1866,9(,1,42,62,52,12,22,32,Abstract_Concrete_6tasks_simseq_2seq_listtask_switchAB_fMRI,872699,35214,12345,6,27,227,A5,weapon,5,9(,100355.2982826,100613.3091001,258.010817500006,0,0
1753,4$,1,41,61,52,11,22,31,Abstract_Concrete_6tasks_simseq_2seq_listtask_switchAB_fMRI,872699,35214,12345,6,28,228,B1,helmet,1,4$,100355.2982826,100622.309569,267.011286400011,0,0
2288,9(,1,42,62,52,11,22,31,Abstract_Concrete_6tasks_simseq_2seq_listtask_switchAB_fMRI,872699,35214,12345,6,29,229,A5,weapon,5,9(,100355.2982826,100631.3155138,276.017231200007,0,0
1069,4$,1,42,62,51,11,21,31,Abstract_Concrete_6tasks_simseq_2seq_listtask_switchAB_fMRI,872699,35214,12345,6,30,230,B1,helmet,1,4$,100355.2982826,100641.3089942,286.0107116,0,0
1236,2@,1,41,62,51,11,22,31,Abstract_Concrete_6tasks_simseq_2seq_listtask_switchAB_fMRI,872699,35214,12345,6,31,231,A1,glasses,3,2@,100355.2982826,100650.3102857,295.012003100011,0,0
1230,3#,1,42,61,52,12,21,32,Abstract_Concrete_6tasks_simseq_2seq_listtask_switchAB_fMRI,872699,35214,12345,6,32,232,B2,vest,2,3#,100355.2982826,100659.3111561,304.012873500003,0,0
2065,8*,1,42,61,52,11,21,31,Abstract_Concrete_6tasks_simseq_2seq_listtask_switchAB_fMRI,872699,35214,12345,6,33,233,A2,tools,6,8*,100355.2982826,100668.3096472,313.01136460001,0,0
2238,4$,1,42,62,52,11,22,32,Abstract_Concrete_6tasks_simseq_2seq_listtask_switchAB_fMRI,872699,35214,12345,6,34,234,B1,helmet,1,4$,100355.2982826,100678.3094032,323.0111206,0,0
1509,3#,1,41,61,51,11,21,31,Abstract_Concrete_6tasks_simseq_2seq_listtask_switchAB_fMRI,872699,35214,12345,6,35,235,A3,vest,2,3#,100355.2982826,100688.3087281,333.010445500011,0,0
1768,8*,1,42,61,52,12,22,32,Abstract_Concrete_6tasks_simseq_2seq_listtask_switchAB_fMRI,872699,35214,12345,6,36,236,B5,tools,6,8*,100355.2982826,100697.3114821,342.013199500012,0,0
2548,4$,1,41,62,51,12,21,32,Abstract_Concrete_6tasks_simseq_2seq_listtask_switchAB_fMRI,872699,35214,12345,6,37,237,A4,helmet,1,4$,100355.2982826,100706.3109945,351.01271190001,0,0
2216,9(,1,41,61,51,11,21,32,Abstract_Concrete_6tasks_simseq_2seq_listtask_switchAB_fMRI,872699,35214,12345,6,38,238,B4,weapon,5,9(,100355.2982826,100716.309389,361.011106400008,0,0
1208,3#,1,41,62,52,11,21,32,Abstract_Concrete_6tasks_simseq_2seq_listtask_switchAB_fMRI,872699,35214,12345,6,39,239,A3,vest,2,3#,100355.2982826,100726.3098494,371.011566800007,0,0
1116,4$,1,42,62,51,11,21,31,Abstract_Concrete_6tasks_simseq_2seq_listtask_switchAB_fMRI,872699,35214,12345,6,40,240,B1,helmet,1,4$,100355.2982826,100735.3110468,380.012764200001,0,0
