rt1,resp1,correct1,features_1,features_2,features_3,features_4,features_5,features_6,ExpName,subNo,seqA,seqB,block,trial,trialnum,cuetype,task,subtaskcode,corr_resp1,onsetTime_s,onsetTime_cue,onset_cue,onsetTime_cue_fb,onset_cue_fb
2961,8*,1,51,21,32,11,41,61,Abstract_Concrete_6tasks_simseq_2seq_listtask_switchAB_fMRI,900294,15234,32145,1,1,1,A3,vest,2,8*,4557.4020561,4565.412797,8.0107409000002,0,0
4356,9(,1,52,22,32,12,41,61,Abstract_Concrete_6tasks_simseq_2seq_listtask_switchAB_fMRI,900294,15234,32145,1,2,2,B1,glasses,3,9(,4557.4020561,4575.4239921,18.0219360000001,0,0
3933,8*,1,52,22,31,11,42,61,Abstract_Concrete_6tasks_simseq_2seq_listtask_switchAB_fMRI,900294,15234,32145,1,3,3,A3,vest,2,8*,4557.4020561,4587.4153922,30.0133360999998,0,0
1910,8*,1,51,22,31,12,42,62,Abstract_Concrete_6tasks_simseq_2seq_listtask_switchAB_fMRI,900294,15234,32145,1,4,4,B2,vest,2,8*,4557.4020561,4598.4137285,41.0116724,0,0
4061,4$,1,52,22,32,11,41,61,Abstract_Concrete_6tasks_simseq_2seq_listtask_switchAB_fMRI,900294,15234,32145,1,5,5,A1,helmet,1,4$,4557.4020561,4607.413995,50.0119389000001,0,0
3589,2@,1,52,22,32,12,42,62,Abstract_Concrete_6tasks_simseq_2seq_listtask_switchAB_fMRI,900294,15234,32145,1,6,6,B5,tools,6,2@,4557.4020561,4619.4154694,62.0134133000001,0,0
3078,7&,1,51,22,31,12,41,62,Abstract_Concrete_6tasks_simseq_2seq_listtask_switchAB_fMRI,900294,15234,32145,1,7,7,A5,weapon,5,7&,4557.4020561,4630.4126268,73.0105707000002,0,0
1613,9(,1,52,21,32,12,42,62,Abstract_Concrete_6tasks_simseq_2seq_listtask_switchAB_fMRI,900294,15234,32145,1,8,8,B1,glasses,3,9(,4557.4020561,4641.4123334,84.0102772999999,0,0
1419,4$,1,52,21,31,11,41,61,Abstract_Concrete_6tasks_simseq_2seq_listtask_switchAB_fMRI,900294,15234,32145,1,9,9,A1,helmet,1,4$,4557.4020561,4650.4151307,93.0130746000004,0,0
3147,4$,1,51,22,32,11,41,61,Abstract_Concrete_6tasks_simseq_2seq_listtask_switchAB_fMRI,900294,15234,32145,1,10,10,B3,helmet,1,4$,4557.4020561,4659.4144155,102.012359400001,0,0
3368,2@,1,51,22,32,11,42,61,Abstract_Concrete_6tasks_simseq_2seq_listtask_switchAB_fMRI,900294,15234,32145,1,11,11,A2,tools,6,2@,4557.4020561,4670.4160661,113.01401,0,0
1578,8*,1,51,21,32,11,42,61,Abstract_Concrete_6tasks_simseq_2seq_listtask_switchAB_fMRI,900294,15234,32145,1,12,12,B2,vest,2,8*,4557.4020561,4681.4140618,124.0120057,0,0
2652,9(,1,51,21,32,12,42,61,Abstract_Concrete_6tasks_simseq_2seq_listtask_switchAB_fMRI,900294,15234,32145,1,13,13,A4,glasses,3,9(,4557.4020561,4690.4155341,133.013478,0,0
2331,2@,1,52,21,31,12,42,61,Abstract_Concrete_6tasks_simseq_2seq_listtask_switchAB_fMRI,900294,15234,32145,1,14,14,B5,tools,6,2@,4557.4020561,4700.4149394,143.0128833,0,0
2141,2@,1,51,21,31,11,42,62,Abstract_Concrete_6tasks_simseq_2seq_listtask_switchAB_fMRI,900294,15234,32145,1,15,15,A2,tools,6,2@,4557.4020561,4710.4136768,153.0116207,0,0
4073,7&,1,52,21,32,12,41,61,Abstract_Concrete_6tasks_simseq_2seq_listtask_switchAB_fMRI,900294,15234,32145,1,16,16,B4,weapon,5,7&,4557.4020561,4720.4141783,163.0121222,0,0
3215,7&,1,51,22,31,12,42,62,Abstract_Concrete_6tasks_simseq_2seq_listtask_switchAB_fMRI,900294,15234,32145,1,17,17,A5,weapon,5,7&,4557.4020561,4732.414201,175.0121449,0,0
1866,9(,1,52,21,32,12,41,61,Abstract_Concrete_6tasks_simseq_2seq_listtask_switchAB_fMRI,900294,15234,32145,1,18,18,B1,glasses,3,9(,4557.4020561,4743.4146011,186.012545000001,0,0
1280,4$,1,52,22,31,12,41,62,Abstract_Concrete_6tasks_simseq_2seq_listtask_switchAB_fMRI,900294,15234,32145,1,19,19,A1,helmet,1,4$,4557.4020561,4752.4119347,195.0098786,0,0
1784,4$,1,51,21,32,11,41,62,Abstract_Concrete_6tasks_simseq_2seq_listtask_switchAB_fMRI,900294,15234,32145,1,20,20,B3,helmet,1,4$,4557.4020561,4761.4144587,204.0124026,0,0
2332,9(,1,52,22,31,11,42,62,Abstract_Concrete_6tasks_simseq_2seq_listtask_switchAB_fMRI,900294,15234,32145,1,21,21,A4,glasses,3,9(,4557.4020561,4770.4130613,213.0110052,0,0
1432,8*,1,51,21,32,11,41,61,Abstract_Concrete_6tasks_simseq_2seq_listtask_switchAB_fMRI,900294,15234,32145,1,22,22,B2,vest,2,8*,4557.4020561,4780.4145448,223.0124887,0,0
2586,8*,1,51,22,31,12,42,61,Abstract_Concrete_6tasks_simseq_2seq_listtask_switchAB_fMRI,900294,15234,32145,1,23,23,A3,vest,2,8*,4557.4020561,4789.4155317,232.013475600001,0,0
2515,7&,1,51,21,31,11,42,61,Abstract_Concrete_6tasks_simseq_2seq_listtask_switchAB_fMRI,900294,15234,32145,1,24,24,B4,weapon,5,7&,4557.4020561,4799.4138812,242.0118251,0,0
1788,8*,1,51,21,32,11,41,62,Abstract_Concrete_6tasks_simseq_2seq_listtask_switchAB_fMRI,900294,15234,32145,1,25,25,A3,vest,2,8*,4557.4020561,4809.4138081,252.011752,0,0
3110,4$,1,52,21,32,12,42,61,Abstract_Concrete_6tasks_simseq_2seq_listtask_switchAB_fMRI,900294,15234,32145,1,26,26,B3,helmet,1,4$,4557.4020561,4818.4126758,261.0106197,0,0
1919,2@,1,51,22,31,12,41,62,Abstract_Concrete_6tasks_simseq_2seq_listtask_switchAB_fMRI,900294,15234,32145,1,27,27,A2,tools,6,2@,4557.4020561,4829.4140337,272.0119776,0,0
1801,4$,1,51,22,32,12,41,62,Abstract_Concrete_6tasks_simseq_2seq_listtask_switchAB_fMRI,900294,15234,32145,1,28,28,B3,helmet,1,4$,4557.4020561,4838.4122405,281.0101844,0,0
2928,7&,1,52,22,31,12,41,62,Abstract_Concrete_6tasks_simseq_2seq_listtask_switchAB_fMRI,900294,15234,32145,1,29,29,A5,weapon,5,7&,4557.4020561,4847.4134757,290.0114196,0,0
3298,2@,1,51,21,31,12,42,61,Abstract_Concrete_6tasks_simseq_2seq_listtask_switchAB_fMRI,900294,15234,32145,1,30,30,B5,tools,6,2@,4557.4020561,4857.4145143,300.0124582,0,0
1548,2@,1,52,22,32,11,42,61,Abstract_Concrete_6tasks_simseq_2seq_listtask_switchAB_fMRI,900294,15234,32145,1,31,31,A2,tools,6,2@,4557.4020561,4868.4131523,311.0110962,0,0
1478,2@,1,51,21,31,12,42,61,Abstract_Concrete_6tasks_simseq_2seq_listtask_switchAB_fMRI,900294,15234,32145,1,32,32,B5,tools,6,2@,4557.4020561,4877.412953,320.0108969,0,0
4311,9(,1,52,22,31,12,41,61,Abstract_Concrete_6tasks_simseq_2seq_listtask_switchAB_fMRI,900294,15234,32145,1,33,33,A4,glasses,3,9(,4557.4020561,4886.4148546,329.0127985,0,0
1513,8*,1,52,22,31,11,42,62,Abstract_Concrete_6tasks_simseq_2seq_listtask_switchAB_fMRI,900294,15234,32145,1,34,34,B2,vest,2,8*,4557.4020561,4898.4141776,341.0121215,0,0
1262,4$,1,51,22,31,11,42,62,Abstract_Concrete_6tasks_simseq_2seq_listtask_switchAB_fMRI,900294,15234,32145,1,35,35,A1,helmet,1,4$,4557.4020561,4907.4151222,350.0130661,0,0
3402,7&,1,52,21,31,11,41,61,Abstract_Concrete_6tasks_simseq_2seq_listtask_switchAB_fMRI,900294,15234,32145,1,36,36,B4,weapon,5,7&,4557.4020561,4916.4132369,359.0111808,0,0
2704,7&,1,51,22,31,11,41,62,Abstract_Concrete_6tasks_simseq_2seq_listtask_switchAB_fMRI,900294,15234,32145,1,37,37,A5,weapon,5,7&,4557.4020561,4927.4139052,370.0118491,0,0
2220,7&,1,52,22,31,12,42,62,Abstract_Concrete_6tasks_simseq_2seq_listtask_switchAB_fMRI,900294,15234,32145,1,38,38,B4,weapon,5,7&,4557.4020561,4937.4158691,380.013813,0,0
2458,9(,1,51,21,31,12,41,62,Abstract_Concrete_6tasks_simseq_2seq_listtask_switchAB_fMRI,900294,15234,32145,1,39,39,A4,glasses,3,9(,4557.4020561,4947.4159768,390.0139207,0,0
1541,9(,1,51,22,31,12,42,62,Abstract_Concrete_6tasks_simseq_2seq_listtask_switchAB_fMRI,900294,15234,32145,1,40,40,B1,glasses,3,9(,4557.4020561,4957.4128103,400.010754200001,0,0
3358,2@,1,52,21,31,12,41,61,Abstract_Concrete_6tasks_simseq_2seq_listtask_switchAB_fMRI,900294,15234,32145,2,1,41,B5,tools,6,2@,5093.1852866,5101.1971323,8.01184569999987,0,0
2445,7&,1,51,22,31,12,41,62,Abstract_Concrete_6tasks_simseq_2seq_listtask_switchAB_fMRI,900294,15234,32145,2,2,42,A5,weapon,5,7&,5093.1852866,5112.1968654,19.0115788000003,0,0
3065,7&,1,51,21,32,12,41,61,Abstract_Concrete_6tasks_simseq_2seq_listtask_switchAB_fMRI,900294,15234,32145,2,3,43,B4,weapon,5,7&,5093.1852866,5122.1964413,29.0111546999997,0,0
1463,4$,1,51,22,32,12,42,62,Abstract_Concrete_6tasks_simseq_2seq_listtask_switchAB_fMRI,900294,15234,32145,2,4,44,A1,helmet,1,4$,5093.1852866,5133.1967547,40.0114681000005,0,0
1468,8*,1,51,22,31,11,42,62,Abstract_Concrete_6tasks_simseq_2seq_listtask_switchAB_fMRI,900294,15234,32145,2,5,45,B2,vest,2,8*,5093.1852866,5142.198087,49.0128003999998,0,0
2443,9(,1,52,22,31,12,41,62,Abstract_Concrete_6tasks_simseq_2seq_listtask_switchAB_fMRI,900294,15234,32145,2,6,46,A4,glasses,3,9(,5093.1852866,5151.1998143,58.0145277000001,0,0
1748,4$,1,52,22,32,12,42,62,Abstract_Concrete_6tasks_simseq_2seq_listtask_switchAB_fMRI,900294,15234,32145,2,7,47,B3,helmet,1,4$,5093.1852866,5161.1970254,68.0117387999999,0,0
1212,4$,1,52,21,32,12,42,62,Abstract_Concrete_6tasks_simseq_2seq_listtask_switchAB_fMRI,900294,15234,32145,2,8,48,A1,helmet,1,4$,5093.1852866,5170.1979736,77.0126870000004,0,0
1214,9(,1,51,21,32,12,41,61,Abstract_Concrete_6tasks_simseq_2seq_listtask_switchAB_fMRI,900294,15234,32145,2,9,49,B1,glasses,3,9(,5093.1852866,5179.1968172,86.0115305999998,0,0
2628,8*,1,52,22,31,11,41,62,Abstract_Concrete_6tasks_simseq_2seq_listtask_switchAB_fMRI,900294,15234,32145,2,10,50,A3,vest,2,8*,5093.1852866,5188.1975204,95.0122338000001,0,0
1158,9(,1,51,21,31,11,42,61,Abstract_Concrete_6tasks_simseq_2seq_listtask_switchAB_fMRI,900294,15234,32145,2,11,51,B1,glasses,3,9(,5093.1852866,5198.1960884,105.0108018,0,0
1551,8*,1,51,21,31,11,42,62,Abstract_Concrete_6tasks_simseq_2seq_listtask_switchAB_fMRI,900294,15234,32145,2,12,52,A3,vest,2,8*,5093.1852866,5207.1962638,114.010977200001,0,0
1355,2@,1,52,21,32,12,42,61,Abstract_Concrete_6tasks_simseq_2seq_listtask_switchAB_fMRI,900294,15234,32145,2,13,53,B5,tools,6,2@,5093.1852866,5216.1971482,123.0118616,0,0
2342,2@,1,51,22,32,12,42,62,Abstract_Concrete_6tasks_simseq_2seq_listtask_switchAB_fMRI,900294,15234,32145,2,14,54,A2,tools,6,2@,5093.1852866,5225.1964561,132.011169500001,0,0
1636,4$,1,52,22,31,11,41,61,Abstract_Concrete_6tasks_simseq_2seq_listtask_switchAB_fMRI,900294,15234,32145,2,15,55,B3,helmet,1,4$,5093.1852866,5235.1981833,142.0128967,0,0
1327,2@,1,52,21,32,11,42,62,Abstract_Concrete_6tasks_simseq_2seq_listtask_switchAB_fMRI,900294,15234,32145,2,16,56,A2,tools,6,2@,5093.1852866,5244.1973271,151.0120405,0,0
2659,2@,1,51,21,32,11,41,61,Abstract_Concrete_6tasks_simseq_2seq_listtask_switchAB_fMRI,900294,15234,32145,2,17,57,B5,tools,6,2@,5093.1852866,5253.1994487,160.0141621,0,0
1542,2@,1,52,21,32,12,42,62,Abstract_Concrete_6tasks_simseq_2seq_listtask_switchAB_fMRI,900294,15234,32145,2,18,58,A2,tools,6,2@,5093.1852866,5263.1972382,170.0119516,0,0
2040,7&,0,51,22,32,11,42,62,Abstract_Concrete_6tasks_simseq_2seq_listtask_switchAB_fMRI,900294,15234,32145,2,19,59,B2,vest,2,8*,5093.1852866,5272.198196,179.0129094,5274.2531477,181.0678611
3770,7&,1,51,22,31,12,41,61,Abstract_Concrete_6tasks_simseq_2seq_listtask_switchAB_fMRI,900294,15234,32145,2,20,60,A5,weapon,5,7&,5093.1852866,5282.1966963,189.011409700001,0,0
2010,7&,1,51,22,32,12,42,62,Abstract_Concrete_6tasks_simseq_2seq_listtask_switchAB_fMRI,900294,15234,32145,2,21,61,B4,weapon,5,7&,5093.1852866,5293.1967422,200.0114556,0,0
1410,4$,1,51,22,31,11,42,61,Abstract_Concrete_6tasks_simseq_2seq_listtask_switchAB_fMRI,900294,15234,32145,2,22,62,A1,helmet,1,4$,5093.1852866,5303.1971074,210.0118208,0,0
1478,9(,1,52,21,32,11,42,62,Abstract_Concrete_6tasks_simseq_2seq_listtask_switchAB_fMRI,900294,15234,32145,2,23,63,B1,glasses,3,9(,5093.1852866,5312.1986856,219.013399,0,0
2642,7&,1,51,21,32,11,42,62,Abstract_Concrete_6tasks_simseq_2seq_listtask_switchAB_fMRI,900294,15234,32145,2,24,64,A5,weapon,5,7&,5093.1852866,5321.197143,228.0118564,0,0
1653,4$,1,51,21,31,12,42,62,Abstract_Concrete_6tasks_simseq_2seq_listtask_switchAB_fMRI,900294,15234,32145,2,25,65,B3,helmet,1,4$,5093.1852866,5331.1960556,238.010769,0,0
1704,8*,1,52,22,32,12,42,61,Abstract_Concrete_6tasks_simseq_2seq_listtask_switchAB_fMRI,900294,15234,32145,2,26,66,A3,vest,2,8*,5093.1852866,5340.1965468,247.0112602,0,0
1158,2@,1,52,22,31,11,42,61,Abstract_Concrete_6tasks_simseq_2seq_listtask_switchAB_fMRI,900294,15234,32145,2,27,67,B5,tools,6,2@,5093.1852866,5349.1973874,256.0121008,0,0
1308,8*,1,52,22,31,12,41,62,Abstract_Concrete_6tasks_simseq_2seq_listtask_switchAB_fMRI,900294,15234,32145,2,28,68,A3,vest,2,8*,5093.1852866,5358.197322,265.0120354,0,0
1372,8*,1,51,22,32,12,42,61,Abstract_Concrete_6tasks_simseq_2seq_listtask_switchAB_fMRI,900294,15234,32145,2,29,69,B2,vest,2,8*,5093.1852866,5367.1967387,274.0114521,0,0
1214,4$,1,52,21,32,11,42,61,Abstract_Concrete_6tasks_simseq_2seq_listtask_switchAB_fMRI,900294,15234,32145,2,30,70,A1,helmet,1,4$,5093.1852866,5376.1967783,283.0114917,0,0
1056,7&,1,51,22,31,12,41,61,Abstract_Concrete_6tasks_simseq_2seq_listtask_switchAB_fMRI,900294,15234,32145,2,31,71,B4,weapon,5,7&,5093.1852866,5385.1962844,292.0109978,0,0
1732,2@,1,52,21,32,11,42,62,Abstract_Concrete_6tasks_simseq_2seq_listtask_switchAB_fMRI,900294,15234,32145,2,32,72,A2,tools,6,2@,5093.1852866,5394.1990805,301.0137939,0,0
1789,4$,1,52,21,32,12,42,61,Abstract_Concrete_6tasks_simseq_2seq_listtask_switchAB_fMRI,900294,15234,32145,2,33,73,B3,helmet,1,4$,5093.1852866,5403.1955802,310.0102936,0,0
1921,9(,1,52,21,32,11,41,61,Abstract_Concrete_6tasks_simseq_2seq_listtask_switchAB_fMRI,900294,15234,32145,2,34,74,A4,glasses,3,9(,5093.1852866,5412.1963133,319.0110267,0,0
3179,7&,1,51,22,32,12,42,62,Abstract_Concrete_6tasks_simseq_2seq_listtask_switchAB_fMRI,900294,15234,32145,2,35,75,B4,weapon,5,7&,5093.1852866,5421.1964015,328.0111149,0,0
1054,9(,1,52,22,31,11,41,61,Abstract_Concrete_6tasks_simseq_2seq_listtask_switchAB_fMRI,900294,15234,32145,2,36,76,A4,glasses,3,9(,5093.1852866,5432.1970431,339.0117565,0,0
1445,8*,1,51,22,31,12,41,62,Abstract_Concrete_6tasks_simseq_2seq_listtask_switchAB_fMRI,900294,15234,32145,2,37,77,B2,vest,2,8*,5093.1852866,5441.1959184,348.0106318,0,0
1497,9(,1,52,22,32,11,41,61,Abstract_Concrete_6tasks_simseq_2seq_listtask_switchAB_fMRI,900294,15234,32145,2,38,78,A4,glasses,3,9(,5093.1852866,5450.1968012,357.0115146,0,0
1290,9(,1,52,21,31,11,41,61,Abstract_Concrete_6tasks_simseq_2seq_listtask_switchAB_fMRI,900294,15234,32145,2,39,79,B1,glasses,3,9(,5093.1852866,5459.1974827,366.0121961,0,0
2935,7&,1,51,21,32,11,41,61,Abstract_Concrete_6tasks_simseq_2seq_listtask_switchAB_fMRI,900294,15234,32145,2,40,80,A5,weapon,5,7&,5093.1852866,5468.1967161,375.0114295,0,0
2900,7&,1,51,21,31,11,41,61,Abstract_Concrete_6tasks_simseq_2seq_listtask_switchAB_fMRI,900294,15234,32145,3,1,81,B4,weapon,5,7&,5523.3403934,5531.3510104,8.01061699999991,0,0
2046,7&,1,52,22,31,11,42,62,Abstract_Concrete_6tasks_simseq_2seq_listtask_switchAB_fMRI,900294,15234,32145,3,2,82,A5,weapon,5,7&,5523.3403934,5541.3504449,18.0100515000004,0,0
1255,2@,1,51,22,31,12,42,61,Abstract_Concrete_6tasks_simseq_2seq_listtask_switchAB_fMRI,900294,15234,32145,3,3,83,B5,tools,6,2@,5523.3403934,5551.3530974,28.0127039999998,0,0
1931,9(,1,52,21,32,11,41,61,Abstract_Concrete_6tasks_simseq_2seq_listtask_switchAB_fMRI,900294,15234,32145,3,4,84,A4,glasses,3,9(,5523.3403934,5560.3538278,37.0134343999998,0,0
1425,7&,1,51,21,32,11,41,62,Abstract_Concrete_6tasks_simseq_2seq_listtask_switchAB_fMRI,900294,15234,32145,3,5,85,B4,weapon,5,7&,5523.3403934,5569.3516136,46.0112202,0,0
3326,8*,1,52,22,32,12,41,62,Abstract_Concrete_6tasks_simseq_2seq_listtask_switchAB_fMRI,900294,15234,32145,3,6,86,A3,vest,2,8*,5523.3403934,5578.3546447,55.0142513000001,0,0
1209,2@,1,51,21,32,12,41,61,Abstract_Concrete_6tasks_simseq_2seq_listtask_switchAB_fMRI,900294,15234,32145,3,7,87,B5,tools,6,2@,5523.3403934,5589.3540259,66.0136325000003,0,0
3328,7&,1,51,21,32,11,42,62,Abstract_Concrete_6tasks_simseq_2seq_listtask_switchAB_fMRI,900294,15234,32145,3,8,88,A5,weapon,5,7&,5523.3403934,5598.3520355,75.0116421000002,0,0
1013,9(,1,51,22,32,11,42,62,Abstract_Concrete_6tasks_simseq_2seq_listtask_switchAB_fMRI,900294,15234,32145,3,9,89,B1,glasses,3,9(,5523.3403934,5609.3542705,86.0138771000002,0,0
1346,7&,1,51,21,32,12,41,62,Abstract_Concrete_6tasks_simseq_2seq_listtask_switchAB_fMRI,900294,15234,32145,3,10,90,A5,weapon,5,7&,5523.3403934,5618.353802,95.0134085999998,0,0
1134,9(,1,52,21,31,11,42,61,Abstract_Concrete_6tasks_simseq_2seq_listtask_switchAB_fMRI,900294,15234,32145,3,11,91,B1,glasses,3,9(,5523.3403934,5627.3526255,104.0122321,0,0
1368,4$,1,51,22,31,11,42,61,Abstract_Concrete_6tasks_simseq_2seq_listtask_switchAB_fMRI,900294,15234,32145,3,12,92,A1,helmet,1,4$,5523.3403934,5636.351969,113.0115756,0,0
2026,8*,1,52,21,32,11,41,62,Abstract_Concrete_6tasks_simseq_2seq_listtask_switchAB_fMRI,900294,15234,32145,3,13,93,B2,vest,2,8*,5523.3403934,5645.3542288,122.0138354,0,0
1251,7&,1,52,22,32,11,41,62,Abstract_Concrete_6tasks_simseq_2seq_listtask_switchAB_fMRI,900294,15234,32145,3,14,94,A5,weapon,5,7&,5523.3403934,5655.3523923,132.0119989,0,0
1705,2@,1,52,21,32,11,41,61,Abstract_Concrete_6tasks_simseq_2seq_listtask_switchAB_fMRI,900294,15234,32145,3,15,95,B5,tools,6,2@,5523.3403934,5664.3527523,141.0123589,0,0
1008,4$,1,52,22,32,12,41,61,Abstract_Concrete_6tasks_simseq_2seq_listtask_switchAB_fMRI,900294,15234,32145,3,16,96,A1,helmet,1,4$,5523.3403934,5673.3537947,150.013401300001,0,0
984,9(,1,52,22,32,12,41,62,Abstract_Concrete_6tasks_simseq_2seq_listtask_switchAB_fMRI,900294,15234,32145,3,17,97,B1,glasses,3,9(,5523.3403934,5682.3547515,159.0143581,0,0
1932,9(,1,51,22,31,12,42,61,Abstract_Concrete_6tasks_simseq_2seq_listtask_switchAB_fMRI,900294,15234,32145,3,18,98,A4,glasses,3,9(,5523.3403934,5691.3547061,168.0143127,0,0
1816,2@,1,51,21,31,11,42,62,Abstract_Concrete_6tasks_simseq_2seq_listtask_switchAB_fMRI,900294,15234,32145,3,19,99,B5,tools,6,2@,5523.3403934,5700.3513183,177.0109249,0,0
1939,8*,1,52,22,32,11,42,62,Abstract_Concrete_6tasks_simseq_2seq_listtask_switchAB_fMRI,900294,15234,32145,3,20,100,A3,vest,2,8*,5523.3403934,5709.3516768,186.0112834,0,0
2334,7&,1,51,21,31,12,41,61,Abstract_Concrete_6tasks_simseq_2seq_listtask_switchAB_fMRI,900294,15234,32145,3,21,101,B4,weapon,5,7&,5523.3403934,5718.3509253,195.0105319,0,0
1312,2@,1,52,21,31,12,41,62,Abstract_Concrete_6tasks_simseq_2seq_listtask_switchAB_fMRI,900294,15234,32145,3,22,102,A2,tools,6,2@,5523.3403934,5728.352861,205.0124676,0,0
1408,4$,1,51,22,31,12,42,61,Abstract_Concrete_6tasks_simseq_2seq_listtask_switchAB_fMRI,900294,15234,32145,3,23,103,B3,helmet,1,4$,5523.3403934,5737.3535575,214.0131641,0,0
1213,2@,1,52,22,32,11,41,61,Abstract_Concrete_6tasks_simseq_2seq_listtask_switchAB_fMRI,900294,15234,32145,3,24,104,A2,tools,6,2@,5523.3403934,5746.3505388,223.010145400001,0,0
893,9(,1,52,21,31,12,42,61,Abstract_Concrete_6tasks_simseq_2seq_listtask_switchAB_fMRI,900294,15234,32145,3,25,105,B1,glasses,3,9(,5523.3403934,5755.3532106,232.0128172,0,0
1871,9(,1,51,21,32,11,42,61,Abstract_Concrete_6tasks_simseq_2seq_listtask_switchAB_fMRI,900294,15234,32145,3,26,106,A4,glasses,3,9(,5523.3403934,5763.3513678,240.0109744,0,0
1709,7&,1,52,21,32,12,41,62,Abstract_Concrete_6tasks_simseq_2seq_listtask_switchAB_fMRI,900294,15234,32145,3,27,107,B4,weapon,5,7&,5523.3403934,5772.3515759,249.0111825,0,0
1274,8*,1,51,21,32,11,41,61,Abstract_Concrete_6tasks_simseq_2seq_listtask_switchAB_fMRI,900294,15234,32145,3,28,108,A3,vest,2,8*,5523.3403934,5781.3517925,258.0113991,0,0
1140,4$,1,51,22,32,12,41,61,Abstract_Concrete_6tasks_simseq_2seq_listtask_switchAB_fMRI,900294,15234,32145,3,29,109,B3,helmet,1,4$,5523.3403934,5790.3526339,267.0122405,0,0
1155,2@,1,51,21,31,11,41,62,Abstract_Concrete_6tasks_simseq_2seq_listtask_switchAB_fMRI,900294,15234,32145,3,30,110,A2,tools,6,2@,5523.3403934,5799.3516175,276.011224100001,0,0
2520,4$,1,52,21,32,11,42,62,Abstract_Concrete_6tasks_simseq_2seq_listtask_switchAB_fMRI,900294,15234,32145,3,31,111,B3,helmet,1,4$,5523.3403934,5808.3521707,285.0117773,0,0
1520,8*,1,52,22,31,11,41,62,Abstract_Concrete_6tasks_simseq_2seq_listtask_switchAB_fMRI,900294,15234,32145,3,32,112,A3,vest,2,8*,5523.3403934,5818.3533006,295.0129072,0,0
1920,4$,1,52,22,32,11,42,61,Abstract_Concrete_6tasks_simseq_2seq_listtask_switchAB_fMRI,900294,15234,32145,3,33,113,B3,helmet,1,4$,5523.3403934,5827.3520797,304.0116863,0,0
2044,9(,1,51,22,32,12,41,62,Abstract_Concrete_6tasks_simseq_2seq_listtask_switchAB_fMRI,900294,15234,32145,3,34,114,A4,glasses,3,9(,5523.3403934,5836.3505326,313.010139200001,0,0
1175,8*,1,52,22,32,11,41,62,Abstract_Concrete_6tasks_simseq_2seq_listtask_switchAB_fMRI,900294,15234,32145,3,35,115,B2,vest,2,8*,5523.3403934,5846.3515909,323.0111975,0,0
1208,2@,1,51,21,31,12,42,61,Abstract_Concrete_6tasks_simseq_2seq_listtask_switchAB_fMRI,900294,15234,32145,3,36,116,A2,tools,6,2@,5523.3403934,5855.3521456,332.0117522,0,0
1220,8*,1,51,22,32,12,41,62,Abstract_Concrete_6tasks_simseq_2seq_listtask_switchAB_fMRI,900294,15234,32145,3,37,117,B2,vest,2,8*,5523.3403934,5864.3519513,341.0115579,0,0
1222,4$,1,51,22,31,11,42,62,Abstract_Concrete_6tasks_simseq_2seq_listtask_switchAB_fMRI,900294,15234,32145,3,38,118,A1,helmet,1,4$,5523.3403934,5873.3526881,350.0122947,0,0
1159,8*,1,51,22,32,12,42,61,Abstract_Concrete_6tasks_simseq_2seq_listtask_switchAB_fMRI,900294,15234,32145,3,39,119,B2,vest,2,8*,5523.3403934,5882.3537607,359.0133673,0,0
1327,4$,1,51,22,31,11,42,62,Abstract_Concrete_6tasks_simseq_2seq_listtask_switchAB_fMRI,900294,15234,32145,3,40,120,A1,helmet,1,4$,5523.3403934,5891.3528185,368.0124251,0,0
1507,7&,1,52,21,31,12,42,62,Abstract_Concrete_6tasks_simseq_2seq_listtask_switchAB_fMRI,900294,15234,32145,4,1,121,A5,weapon,5,7&,5967.6998865,5975.7095252,8.00963870000032,0,0
1755,8*,1,52,22,32,12,42,61,Abstract_Concrete_6tasks_simseq_2seq_listtask_switchAB_fMRI,900294,15234,32145,4,2,122,B2,vest,2,8*,5967.6998865,5984.7103785,17.0104920000003,0,0
1244,2@,1,51,22,31,11,42,61,Abstract_Concrete_6tasks_simseq_2seq_listtask_switchAB_fMRI,900294,15234,32145,4,3,123,A2,tools,6,2@,5967.6998865,5993.7127446,26.0128581000008,0,0
1686,8*,1,51,22,31,12,41,62,Abstract_Concrete_6tasks_simseq_2seq_listtask_switchAB_fMRI,900294,15234,32145,4,4,124,B2,vest,2,8*,5967.6998865,6002.7123203,35.0124338000005,0,0
1519,9(,1,52,22,32,11,41,62,Abstract_Concrete_6tasks_simseq_2seq_listtask_switchAB_fMRI,900294,15234,32145,4,5,125,A4,glasses,3,9(,5967.6998865,6011.7118059,44.0119194000008,0,0
783,7&,1,51,21,31,12,41,62,Abstract_Concrete_6tasks_simseq_2seq_listtask_switchAB_fMRI,900294,15234,32145,4,6,126,B4,weapon,5,7&,5967.6998865,6020.7138506,53.0139641000005,0,0
1547,9(,1,51,21,31,11,42,61,Abstract_Concrete_6tasks_simseq_2seq_listtask_switchAB_fMRI,900294,15234,32145,4,7,127,A4,glasses,3,9(,5967.6998865,6028.7120351,61.0121486000007,0,0
776,9(,1,52,22,31,12,41,62,Abstract_Concrete_6tasks_simseq_2seq_listtask_switchAB_fMRI,900294,15234,32145,4,8,128,B1,glasses,3,9(,5967.6998865,6037.7117832,70.0118967000008,0,0
1072,2@,1,51,21,31,11,41,61,Abstract_Concrete_6tasks_simseq_2seq_listtask_switchAB_fMRI,900294,15234,32145,4,9,129,A2,tools,6,2@,5967.6998865,6045.7131612,78.0132747000007,0,0
1326,4$,1,51,21,31,12,41,61,Abstract_Concrete_6tasks_simseq_2seq_listtask_switchAB_fMRI,900294,15234,32145,4,10,130,B3,helmet,1,4$,5967.6998865,6054.7134088,87.0135223000007,0,0
1465,9(,1,51,22,32,12,41,61,Abstract_Concrete_6tasks_simseq_2seq_listtask_switchAB_fMRI,900294,15234,32145,4,11,131,A4,glasses,3,9(,5967.6998865,6063.7133322,96.0134457000004,0,0
1208,4$,1,51,22,32,11,42,62,Abstract_Concrete_6tasks_simseq_2seq_listtask_switchAB_fMRI,900294,15234,32145,4,12,132,B3,helmet,1,4$,5967.6998865,6072.7127841,105.012897600001,0,0
1546,9(,1,52,22,32,12,42,61,Abstract_Concrete_6tasks_simseq_2seq_listtask_switchAB_fMRI,900294,15234,32145,4,13,133,A4,glasses,3,9(,5967.6998865,6081.7136687,114.013782200001,0,0
2519,4$,1,52,22,32,11,42,62,Abstract_Concrete_6tasks_simseq_2seq_listtask_switchAB_fMRI,900294,15234,32145,4,14,134,B3,helmet,1,4$,5967.6998865,6090.7132772,123.013390700001,0,0
2074,7&,1,51,21,31,11,41,62,Abstract_Concrete_6tasks_simseq_2seq_listtask_switchAB_fMRI,900294,15234,32145,4,15,135,A5,weapon,5,7&,5967.6998865,6100.7121508,133.0122643,0,0
1662,2@,1,51,22,31,12,42,61,Abstract_Concrete_6tasks_simseq_2seq_listtask_switchAB_fMRI,900294,15234,32145,4,16,136,B5,tools,6,2@,5967.6998865,6110.7118362,143.011949700001,0,0
1514,8*,1,52,21,32,12,41,62,Abstract_Concrete_6tasks_simseq_2seq_listtask_switchAB_fMRI,900294,15234,32145,4,17,137,A3,vest,2,8*,5967.6998865,6119.7129768,152.013090300001,0,0
1100,9(,1,51,21,32,11,41,61,Abstract_Concrete_6tasks_simseq_2seq_listtask_switchAB_fMRI,900294,15234,32145,4,18,138,B1,glasses,3,9(,5967.6998865,6128.7132708,161.0133843,0,0
1304,4$,1,52,22,31,12,41,61,Abstract_Concrete_6tasks_simseq_2seq_listtask_switchAB_fMRI,900294,15234,32145,4,19,139,A1,helmet,1,4$,5967.6998865,6137.7141958,170.014309300001,0,0
2505,8*,1,51,21,31,12,42,61,Abstract_Concrete_6tasks_simseq_2seq_listtask_switchAB_fMRI,900294,15234,32145,4,20,140,B2,vest,2,8*,5967.6998865,6146.7117596,179.0118731,0,0
2379,2@,1,52,22,31,11,42,61,Abstract_Concrete_6tasks_simseq_2seq_listtask_switchAB_fMRI,900294,15234,32145,4,21,141,A2,tools,6,2@,5967.6998865,6156.7118729,189.011986400001,0,0
2903,7&,1,51,22,31,12,42,62,Abstract_Concrete_6tasks_simseq_2seq_listtask_switchAB_fMRI,900294,15234,32145,4,22,142,B4,weapon,5,7&,5967.6998865,6166.7116392,199.0117527,0,0
1371,7&,1,51,22,32,11,42,62,Abstract_Concrete_6tasks_simseq_2seq_listtask_switchAB_fMRI,900294,15234,32145,4,23,143,A5,weapon,5,7&,5967.6998865,6176.7102613,209.0103748,0,0
2321,2@,1,52,22,31,11,42,62,Abstract_Concrete_6tasks_simseq_2seq_listtask_switchAB_fMRI,900294,15234,32145,4,24,144,B5,tools,6,2@,5967.6998865,6185.7142287,218.0143422,0,0
1428,8*,1,51,22,32,11,41,61,Abstract_Concrete_6tasks_simseq_2seq_listtask_switchAB_fMRI,900294,15234,32145,4,25,145,A3,vest,2,8*,5967.6998865,6195.7110758,228.0111893,0,0
1752,8*,1,51,22,32,11,42,62,Abstract_Concrete_6tasks_simseq_2seq_listtask_switchAB_fMRI,900294,15234,32145,4,26,146,B2,vest,2,8*,5967.6998865,6204.7106163,237.0107298,0,0
2032,7&,1,52,21,32,12,41,62,Abstract_Concrete_6tasks_simseq_2seq_listtask_switchAB_fMRI,900294,15234,32145,4,27,147,A5,weapon,5,7&,5967.6998865,6213.7113686,246.011482100001,0,0
1577,2@,1,51,21,31,11,42,61,Abstract_Concrete_6tasks_simseq_2seq_listtask_switchAB_fMRI,900294,15234,32145,4,28,148,B5,tools,6,2@,5967.6998865,6223.7108081,256.0109216,0,0
1441,4$,1,52,21,32,11,41,62,Abstract_Concrete_6tasks_simseq_2seq_listtask_switchAB_fMRI,900294,15234,32145,4,29,149,A1,helmet,1,4$,5967.6998865,6232.712683,265.0127965,0,0
1926,7&,1,52,22,31,11,42,61,Abstract_Concrete_6tasks_simseq_2seq_listtask_switchAB_fMRI,900294,15234,32145,4,30,150,B4,weapon,5,7&,5967.6998865,6241.7109133,274.011026800001,0,0
1111,8*,1,51,21,31,12,41,61,Abstract_Concrete_6tasks_simseq_2seq_listtask_switchAB_fMRI,900294,15234,32145,4,31,151,A3,vest,2,8*,5967.6998865,6250.7112833,283.011396800001,0,0
1168,9(,1,51,22,32,12,41,62,Abstract_Concrete_6tasks_simseq_2seq_listtask_switchAB_fMRI,900294,15234,32145,4,32,152,B1,glasses,3,9(,5967.6998865,6259.7118667,292.011980200001,0,0
1121,4$,1,52,21,32,11,41,62,Abstract_Concrete_6tasks_simseq_2seq_listtask_switchAB_fMRI,900294,15234,32145,4,33,153,A1,helmet,1,4$,5967.6998865,6268.71142,301.0115335,0,0
2888,2@,1,52,22,31,11,42,62,Abstract_Concrete_6tasks_simseq_2seq_listtask_switchAB_fMRI,900294,15234,32145,4,34,154,B5,tools,6,2@,5967.6998865,6277.7117088,310.011822300001,0,0
1185,2@,1,51,22,32,12,42,62,Abstract_Concrete_6tasks_simseq_2seq_listtask_switchAB_fMRI,900294,15234,32145,4,35,155,A2,tools,6,2@,5967.6998865,6287.7116624,320.0117759,0,0
1261,4$,1,52,21,31,12,42,61,Abstract_Concrete_6tasks_simseq_2seq_listtask_switchAB_fMRI,900294,15234,32145,4,36,156,B3,helmet,1,4$,5967.6998865,6296.7115683,329.011681800001,0,0
1326,8*,1,51,21,32,12,41,62,Abstract_Concrete_6tasks_simseq_2seq_listtask_switchAB_fMRI,900294,15234,32145,4,37,157,A3,vest,2,8*,5967.6998865,6305.7132476,338.0133611,0,0
1001,9(,1,52,22,31,11,41,61,Abstract_Concrete_6tasks_simseq_2seq_listtask_switchAB_fMRI,900294,15234,32145,4,38,158,B1,glasses,3,9(,5967.6998865,6314.7133327,347.013446200001,0,0
957,4$,1,51,21,31,12,42,62,Abstract_Concrete_6tasks_simseq_2seq_listtask_switchAB_fMRI,900294,15234,32145,4,39,159,A1,helmet,1,4$,5967.6998865,6323.7116947,356.011808200001,0,0
2589,7&,1,52,22,32,12,42,62,Abstract_Concrete_6tasks_simseq_2seq_listtask_switchAB_fMRI,900294,15234,32145,4,40,160,B4,weapon,5,7&,5967.6998865,6331.7100353,364.0101488,0,0
2415,7&,1,51,22,31,11,41,61,Abstract_Concrete_6tasks_simseq_2seq_listtask_switchAB_fMRI,900294,15234,32145,5,1,161,A5,weapon,5,7&,6534.6698738,6542.6795935,8.00971970000046,0,0
1100,9(,1,51,21,31,12,42,61,Abstract_Concrete_6tasks_simseq_2seq_listtask_switchAB_fMRI,900294,15234,32145,5,2,162,B1,glasses,3,9(,6534.6698738,6552.6824717,18.0125979000004,0,0
1302,2@,1,52,21,31,11,41,62,Abstract_Concrete_6tasks_simseq_2seq_listtask_switchAB_fMRI,900294,15234,32145,5,3,163,A2,tools,6,2@,6534.6698738,6561.6812625,27.0113887000007,0,0
1762,2@,1,52,22,32,11,42,62,Abstract_Concrete_6tasks_simseq_2seq_listtask_switchAB_fMRI,900294,15234,32145,5,4,164,B5,tools,6,2@,6534.6698738,6570.6820936,36.0122198000008,0,0
2557,8*,1,52,22,32,12,42,61,Abstract_Concrete_6tasks_simseq_2seq_listtask_switchAB_fMRI,900294,15234,32145,5,5,165,A3,vest,2,8*,6534.6698738,6579.68272,45.0128462000002,0,0
1526,4$,1,51,21,32,12,41,61,Abstract_Concrete_6tasks_simseq_2seq_listtask_switchAB_fMRI,900294,15234,32145,5,6,166,B3,helmet,1,4$,6534.6698738,6589.6822155,55.0123417000004,0,0
1413,7&,1,52,22,31,11,41,61,Abstract_Concrete_6tasks_simseq_2seq_listtask_switchAB_fMRI,900294,15234,32145,5,7,167,A5,weapon,5,7&,6534.6698738,6598.6829974,64.0131236000007,0,0
2082,7&,1,51,22,32,11,41,62,Abstract_Concrete_6tasks_simseq_2seq_listtask_switchAB_fMRI,900294,15234,32145,5,8,168,B4,weapon,5,7&,6534.6698738,6607.6817576,73.0118838000008,0,0
2230,4$,1,52,21,32,12,42,62,Abstract_Concrete_6tasks_simseq_2seq_listtask_switchAB_fMRI,900294,15234,32145,5,9,169,A1,helmet,1,4$,6534.6698738,6617.6805923,83.0107185000006,0,0
2034,7&,1,51,22,32,12,41,61,Abstract_Concrete_6tasks_simseq_2seq_listtask_switchAB_fMRI,900294,15234,32145,5,10,170,B4,weapon,5,7&,6534.6698738,6627.6819127,93.0120389000003,0,0
1097,8*,1,52,22,31,12,42,62,Abstract_Concrete_6tasks_simseq_2seq_listtask_switchAB_fMRI,900294,15234,32145,5,11,171,A3,vest,2,8*,6534.6698738,6637.6833715,103.013497700001,0,0
1302,7&,1,52,22,32,11,41,61,Abstract_Concrete_6tasks_simseq_2seq_listtask_switchAB_fMRI,900294,15234,32145,5,12,172,B4,weapon,5,7&,6534.6698738,6646.6813998,112.011526,0,0
1110,2@,1,51,22,31,11,41,62,Abstract_Concrete_6tasks_simseq_2seq_listtask_switchAB_fMRI,900294,15234,32145,5,13,173,A2,tools,6,2@,6534.6698738,6655.681955,121.0120812,0,0
1674,4$,1,51,22,31,11,41,62,Abstract_Concrete_6tasks_simseq_2seq_listtask_switchAB_fMRI,900294,15234,32145,5,14,174,B3,helmet,1,4$,6534.6698738,6664.6812552,130.011381400001,0,0
939,4$,1,51,21,32,12,42,61,Abstract_Concrete_6tasks_simseq_2seq_listtask_switchAB_fMRI,900294,15234,32145,5,15,175,A1,helmet,1,4$,6534.6698738,6673.6804751,139.0106013,0,0
1418,8*,1,51,22,32,12,42,61,Abstract_Concrete_6tasks_simseq_2seq_listtask_switchAB_fMRI,900294,15234,32145,5,16,176,B2,vest,2,8*,6534.6698738,6681.6813956,147.0115218,0,0
3287,9(,1,51,22,31,11,42,61,Abstract_Concrete_6tasks_simseq_2seq_listtask_switchAB_fMRI,900294,15234,32145,5,17,177,A4,glasses,3,9(,6534.6698738,6690.6810781,156.011204300001,0,0
1636,4$,1,52,21,32,11,42,62,Abstract_Concrete_6tasks_simseq_2seq_listtask_switchAB_fMRI,900294,15234,32145,5,18,178,B3,helmet,1,4$,6534.6698738,6701.682087,167.012213200001,0,0
1436,2@,1,51,22,32,11,42,62,Abstract_Concrete_6tasks_simseq_2seq_listtask_switchAB_fMRI,900294,15234,32145,5,19,179,A2,tools,6,2@,6534.6698738,6710.6831562,176.0132824,0,0
980,9(,1,52,22,32,11,42,61,Abstract_Concrete_6tasks_simseq_2seq_listtask_switchAB_fMRI,900294,15234,32145,5,20,180,B1,glasses,3,9(,6534.6698738,6719.6814688,185.011595000001,0,0
1249,9(,1,52,21,31,12,41,62,Abstract_Concrete_6tasks_simseq_2seq_listtask_switchAB_fMRI,900294,15234,32145,5,21,181,A4,glasses,3,9(,6534.6698738,6727.6799782,193.0101044,0,0
1391,9(,1,51,21,32,12,41,62,Abstract_Concrete_6tasks_simseq_2seq_listtask_switchAB_fMRI,900294,15234,32145,5,22,182,B1,glasses,3,9(,6534.6698738,6736.6789566,202.0090828,0,0
1346,4$,1,51,22,31,11,42,61,Abstract_Concrete_6tasks_simseq_2seq_listtask_switchAB_fMRI,900294,15234,32145,5,23,183,A1,helmet,1,4$,6534.6698738,6745.6831371,211.0132633,0,0
1504,2@,1,51,21,31,12,42,61,Abstract_Concrete_6tasks_simseq_2seq_listtask_switchAB_fMRI,900294,15234,32145,5,24,184,B5,tools,6,2@,6534.6698738,6754.6825367,220.012662900001,0,0
1163,8*,1,51,22,31,11,41,61,Abstract_Concrete_6tasks_simseq_2seq_listtask_switchAB_fMRI,900294,15234,32145,5,25,185,A3,vest,2,8*,6534.6698738,6763.6820951,229.0122213,0,0
1200,7&,1,51,21,32,11,41,61,Abstract_Concrete_6tasks_simseq_2seq_listtask_switchAB_fMRI,900294,15234,32145,5,26,186,B4,weapon,5,7&,6534.6698738,6772.6827347,238.0128609,0,0
980,2@,1,51,22,32,12,42,61,Abstract_Concrete_6tasks_simseq_2seq_listtask_switchAB_fMRI,900294,15234,32145,5,27,187,A2,tools,6,2@,6534.6698738,6781.6807253,247.0108515,0,0
1406,8*,1,52,21,32,11,42,62,Abstract_Concrete_6tasks_simseq_2seq_listtask_switchAB_fMRI,900294,15234,32145,5,28,188,B2,vest,2,8*,6534.6698738,6789.6809924,255.0111186,0,0
2235,4$,1,51,22,31,11,41,61,Abstract_Concrete_6tasks_simseq_2seq_listtask_switchAB_fMRI,900294,15234,32145,5,29,189,A1,helmet,1,4$,6534.6698738,6798.6831228,264.013249000001,0,0
1047,9(,1,52,21,31,12,41,61,Abstract_Concrete_6tasks_simseq_2seq_listtask_switchAB_fMRI,900294,15234,32145,5,30,190,B1,glasses,3,9(,6534.6698738,6808.6813431,274.0114693,0,0
1987,8*,1,52,21,31,11,42,62,Abstract_Concrete_6tasks_simseq_2seq_listtask_switchAB_fMRI,900294,15234,32145,5,31,191,A3,vest,2,8*,6534.6698738,6817.6807621,283.0108883,0,0
1575,8*,1,52,21,31,11,41,61,Abstract_Concrete_6tasks_simseq_2seq_listtask_switchAB_fMRI,900294,15234,32145,5,32,192,B2,vest,2,8*,6534.6698738,6826.6809637,292.0110899,0,0
1400,9(,1,51,22,31,11,41,62,Abstract_Concrete_6tasks_simseq_2seq_listtask_switchAB_fMRI,900294,15234,32145,5,33,193,A4,glasses,3,9(,6534.6698738,6835.6814202,301.0115464,0,0
926,2@,1,52,21,31,12,42,61,Abstract_Concrete_6tasks_simseq_2seq_listtask_switchAB_fMRI,900294,15234,32145,5,34,194,B5,tools,6,2@,6534.6698738,6844.6813378,310.011464,0,0
1329,9(,1,51,21,31,11,42,62,Abstract_Concrete_6tasks_simseq_2seq_listtask_switchAB_fMRI,900294,15234,32145,5,35,195,A4,glasses,3,9(,6534.6698738,6852.67991,318.0100362,0,0
1278,4$,1,52,22,31,11,42,61,Abstract_Concrete_6tasks_simseq_2seq_listtask_switchAB_fMRI,900294,15234,32145,5,36,196,B3,helmet,1,4$,6534.6698738,6861.681566,327.011692200001,0,0
1177,7&,1,52,21,31,12,42,62,Abstract_Concrete_6tasks_simseq_2seq_listtask_switchAB_fMRI,900294,15234,32145,5,37,197,A5,weapon,5,7&,6534.6698738,6870.6811227,336.0112489,0,0
1249,2@,1,51,21,31,11,42,62,Abstract_Concrete_6tasks_simseq_2seq_listtask_switchAB_fMRI,900294,15234,32145,5,38,198,B5,tools,6,2@,6534.6698738,6879.6811711,345.0112973,0,0
1144,7&,1,51,21,32,12,41,61,Abstract_Concrete_6tasks_simseq_2seq_listtask_switchAB_fMRI,900294,15234,32145,5,39,199,A5,weapon,5,7&,6534.6698738,6888.6823939,354.0125201,0,0
1473,8*,1,51,21,32,12,41,62,Abstract_Concrete_6tasks_simseq_2seq_listtask_switchAB_fMRI,900294,15234,32145,5,40,200,B2,vest,2,8*,6534.6698738,6897.6817542,363.0118804,0,0
1206,8*,1,51,22,31,11,42,61,Abstract_Concrete_6tasks_simseq_2seq_listtask_switchAB_fMRI,900294,15234,32145,6,1,201,A3,vest,2,8*,6970.1388824,6978.1512273,8.01234490000024,0,0
1122,8*,1,51,22,32,12,42,62,Abstract_Concrete_6tasks_simseq_2seq_listtask_switchAB_fMRI,900294,15234,32145,6,2,202,B2,vest,2,8*,6970.1388824,6987.1504434,17.0115610000003,0,0
1282,4$,1,52,22,32,11,42,61,Abstract_Concrete_6tasks_simseq_2seq_listtask_switchAB_fMRI,900294,15234,32145,6,3,203,A1,helmet,1,4$,6970.1388824,6996.1521412,26.0132588000006,0,0
1442,9(,1,51,22,31,12,41,61,Abstract_Concrete_6tasks_simseq_2seq_listtask_switchAB_fMRI,900294,15234,32145,6,4,204,B1,glasses,3,9(,6970.1388824,7005.1501019,35.0112195000002,0,0
1323,8*,1,52,21,31,12,42,61,Abstract_Concrete_6tasks_simseq_2seq_listtask_switchAB_fMRI,900294,15234,32145,6,5,205,A3,vest,2,8*,6970.1388824,7014.1499665,44.0110841000005,0,0
746,4$,1,51,22,32,11,41,61,Abstract_Concrete_6tasks_simseq_2seq_listtask_switchAB_fMRI,900294,15234,32145,6,6,206,B3,helmet,1,4$,6970.1388824,7023.1511161,53.0122337000003,0,0
1029,2@,1,51,22,32,12,42,61,Abstract_Concrete_6tasks_simseq_2seq_listtask_switchAB_fMRI,900294,15234,32145,6,7,207,A2,tools,6,2@,6970.1388824,7031.1522048,61.0133224000001,0,0
1320,4$,1,51,21,31,12,42,62,Abstract_Concrete_6tasks_simseq_2seq_listtask_switchAB_fMRI,900294,15234,32145,6,8,208,B3,helmet,1,4$,6970.1388824,7040.1531013,70.0142189000007,0,0
1734,9(,1,51,21,31,12,42,62,Abstract_Concrete_6tasks_simseq_2seq_listtask_switchAB_fMRI,900294,15234,32145,6,9,209,A4,glasses,3,9(,6970.1388824,7049.152307,79.0134246000007,0,0
1369,4$,1,51,22,31,11,42,62,Abstract_Concrete_6tasks_simseq_2seq_listtask_switchAB_fMRI,900294,15234,32145,6,10,210,B3,helmet,1,4$,6970.1388824,7058.1503515,88.0114691000008,0,0
1075,2@,1,52,21,32,12,42,62,Abstract_Concrete_6tasks_simseq_2seq_listtask_switchAB_fMRI,900294,15234,32145,6,11,211,A2,tools,6,2@,6970.1388824,7067.1520739,97.0131915000002,0,0
913,9(,1,51,22,32,11,41,62,Abstract_Concrete_6tasks_simseq_2seq_listtask_switchAB_fMRI,900294,15234,32145,6,12,212,B1,glasses,3,9(,6970.1388824,7076.15155,106.0126676,0,0
2716,4$,1,51,22,31,11,41,61,Abstract_Concrete_6tasks_simseq_2seq_listtask_switchAB_fMRI,900294,15234,32145,6,13,213,A1,helmet,1,4$,6970.1388824,7084.1494947,114.010612300001,0,0
1266,2@,1,51,21,31,11,42,61,Abstract_Concrete_6tasks_simseq_2seq_listtask_switchAB_fMRI,900294,15234,32145,6,14,214,B5,tools,6,2@,6970.1388824,7094.1510532,124.012170800001,0,0
943,2@,1,52,21,31,11,41,61,Abstract_Concrete_6tasks_simseq_2seq_listtask_switchAB_fMRI,900294,15234,32145,6,15,215,A2,tools,6,2@,6970.1388824,7103.1527289,133.0138465,0,0
1211,2@,1,51,21,31,12,42,62,Abstract_Concrete_6tasks_simseq_2seq_listtask_switchAB_fMRI,900294,15234,32145,6,16,216,B5,tools,6,2@,6970.1388824,7111.1498971,141.0110147,0,0
1151,8*,1,51,21,31,11,41,62,Abstract_Concrete_6tasks_simseq_2seq_listtask_switchAB_fMRI,900294,15234,32145,6,17,217,A3,vest,2,8*,6970.1388824,7120.1521622,150.0132798,0,0
1370,7&,1,51,21,32,12,41,62,Abstract_Concrete_6tasks_simseq_2seq_listtask_switchAB_fMRI,900294,15234,32145,6,18,218,B4,weapon,5,7&,6970.1388824,7129.1522695,159.013387100001,0,0
937,4$,1,51,22,32,11,42,62,Abstract_Concrete_6tasks_simseq_2seq_listtask_switchAB_fMRI,900294,15234,32145,6,19,219,A1,helmet,1,4$,6970.1388824,7138.1512764,168.012394,0,0
1203,7&,1,51,21,31,11,42,61,Abstract_Concrete_6tasks_simseq_2seq_listtask_switchAB_fMRI,900294,15234,32145,6,20,220,B4,weapon,5,7&,6970.1388824,7146.1523988,176.0135164,0,0
793,8*,1,51,21,31,11,42,61,Abstract_Concrete_6tasks_simseq_2seq_listtask_switchAB_fMRI,900294,15234,32145,6,21,221,A3,vest,2,8*,6970.1388824,7155.151337,185.012454600001,0,0
1281,8*,1,51,22,31,12,41,62,Abstract_Concrete_6tasks_simseq_2seq_listtask_switchAB_fMRI,900294,15234,32145,6,22,222,B2,vest,2,8*,6970.1388824,7163.1502315,193.0113491,0,0
1575,7&,1,52,22,32,11,42,61,Abstract_Concrete_6tasks_simseq_2seq_listtask_switchAB_fMRI,900294,15234,32145,6,23,223,A5,weapon,5,7&,6970.1388824,7172.1512463,202.0123639,0,0
1687,7&,1,52,22,31,11,41,62,Abstract_Concrete_6tasks_simseq_2seq_listtask_switchAB_fMRI,900294,15234,32145,6,24,224,B4,weapon,5,7&,6970.1388824,7181.1511645,211.0122821,0,0
1338,7&,1,52,21,32,12,41,62,Abstract_Concrete_6tasks_simseq_2seq_listtask_switchAB_fMRI,900294,15234,32145,6,25,225,A5,weapon,5,7&,6970.1388824,7190.1501741,220.011291700001,0,0
1470,8*,1,51,22,31,11,42,62,Abstract_Concrete_6tasks_simseq_2seq_listtask_switchAB_fMRI,900294,15234,32145,6,26,226,B2,vest,2,8*,6970.1388824,7199.1522677,229.013385300001,0,0
939,7&,1,52,22,31,12,41,62,Abstract_Concrete_6tasks_simseq_2seq_listtask_switchAB_fMRI,900294,15234,32145,6,27,227,A5,weapon,5,7&,6970.1388824,7208.1518262,238.0129438,0,0
585,9(,1,52,21,31,12,41,61,Abstract_Concrete_6tasks_simseq_2seq_listtask_switchAB_fMRI,900294,15234,32145,6,28,228,B1,glasses,3,9(,6970.1388824,7216.1499486,246.011066200001,0,0
874,9(,1,51,21,31,12,41,62,Abstract_Concrete_6tasks_simseq_2seq_listtask_switchAB_fMRI,900294,15234,32145,6,29,229,A4,glasses,3,9(,6970.1388824,7224.1513137,254.012431300001,0,0
2224,2@,1,51,21,31,12,41,62,Abstract_Concrete_6tasks_simseq_2seq_listtask_switchAB_fMRI,900294,15234,32145,6,30,230,B5,tools,6,2@,6970.1388824,7232.1489444,262.010062,0,0
1991,4$,1,51,22,32,12,41,62,Abstract_Concrete_6tasks_simseq_2seq_listtask_switchAB_fMRI,900294,15234,32145,6,31,231,A1,helmet,1,4$,6970.1388824,7242.1501116,272.0112292,0,0
2616,8*,1,52,21,31,11,42,61,Abstract_Concrete_6tasks_simseq_2seq_listtask_switchAB_fMRI,900294,15234,32145,6,32,232,B2,vest,2,8*,6970.1388824,7252.1515054,282.012623000001,0,0
1717,2@,1,52,22,32,12,42,62,Abstract_Concrete_6tasks_simseq_2seq_listtask_switchAB_fMRI,900294,15234,32145,6,33,233,A2,tools,6,2@,6970.1388824,7262.1503382,292.0114558,0,0
1107,9(,1,51,22,31,12,41,62,Abstract_Concrete_6tasks_simseq_2seq_listtask_switchAB_fMRI,900294,15234,32145,6,34,234,B1,glasses,3,9(,6970.1388824,7271.1504522,301.0115698,0,0
1402,9(,1,51,21,31,12,42,62,Abstract_Concrete_6tasks_simseq_2seq_listtask_switchAB_fMRI,900294,15234,32145,6,35,235,A4,glasses,3,9(,6970.1388824,7280.1512823,310.012399900001,0,0
1454,4$,1,52,22,32,11,42,62,Abstract_Concrete_6tasks_simseq_2seq_listtask_switchAB_fMRI,900294,15234,32145,6,36,236,B3,helmet,1,4$,6970.1388824,7289.1481668,319.0092844,0,0
1193,7&,1,51,22,31,12,42,61,Abstract_Concrete_6tasks_simseq_2seq_listtask_switchAB_fMRI,900294,15234,32145,6,37,237,A5,weapon,5,7&,6970.1388824,7298.1481466,328.0092642,0,0
1701,2@,1,52,22,31,12,41,62,Abstract_Concrete_6tasks_simseq_2seq_listtask_switchAB_fMRI,900294,15234,32145,6,38,238,B5,tools,6,2@,6970.1388824,7307.1504277,337.011545300001,0,0
1715,9(,1,51,21,32,11,42,62,Abstract_Concrete_6tasks_simseq_2seq_listtask_switchAB_fMRI,900294,15234,32145,6,39,239,A4,glasses,3,9(,6970.1388824,7316.1481162,346.0092338,0,0
3324,7&,1,51,21,32,12,41,61,Abstract_Concrete_6tasks_simseq_2seq_listtask_switchAB_fMRI,900294,15234,32145,6,40,240,B4,weapon,5,7&,6970.1388824,7325.1503993,355.0115169,0,0
