rt1,resp1,correct1,features_1,features_2,features_3,features_4,features_5,features_6,ExpName,subNo,seqA,seqB,block,trial,trialnum,cuetype,task,subtaskcode,corr_resp1,onsetTime_s,onsetTime_cue,onset_cue,onsetTime_cue_fb,onset_cue_fb
6963,2@,1,32,42,11,21,51,62,Abstract_Concrete_6tasks_simseq_2seq_listtask_switchAB_fMRI,974048,21345,43251,1,1,1,B4,tools,6,2@,3988.8140934,3996.8254727,8.01137930000004,0,0
2577,4$,1,32,41,11,22,52,62,Abstract_Concrete_6tasks_simseq_2seq_listtask_switchAB_fMRI,974048,21345,43251,1,2,2,A1,vest,2,4$,3988.8140934,4010.8246031,22.0105097000001,0,0
4829,2@,1,31,42,11,21,51,62,Abstract_Concrete_6tasks_simseq_2seq_listtask_switchAB_fMRI,974048,21345,43251,1,3,3,B4,tools,6,2@,3988.8140934,4020.8256748,32.0115814000001,0,0
0,,0,32,41,12,22,51,61,Abstract_Concrete_6tasks_simseq_2seq_listtask_switchAB_fMRI,974048,21345,43251,1,4,4,A4,weapon,5,3#,3988.8140934,4032.8272536,44.0131602000001,4041.920445,53.1063516000004
2368,7&,1,31,41,12,21,51,61,Abstract_Concrete_6tasks_simseq_2seq_listtask_switchAB_fMRI,974048,21345,43251,1,5,5,B2,glasses,3,7&,3988.8140934,4049.8256399,61.0115465000003,0,0
5996,7&,1,32,42,12,21,51,61,Abstract_Concrete_6tasks_simseq_2seq_listtask_switchAB_fMRI,974048,21345,43251,1,6,6,A3,glasses,3,7&,3988.8140934,4059.8273642,71.0132708000001,0,0
2775,9(,1,32,42,11,22,52,61,Abstract_Concrete_6tasks_simseq_2seq_listtask_switchAB_fMRI,974048,21345,43251,1,7,7,B5,helmet,1,9(,3988.8140934,4073.8253057,85.0112123000004,0,0
2023,4$,1,31,42,12,21,51,62,Abstract_Concrete_6tasks_simseq_2seq_listtask_switchAB_fMRI,974048,21345,43251,1,8,8,A1,vest,2,4$,3988.8140934,4083.8272952,95.0132018000004,0,0
2863,3#,1,32,42,12,22,52,61,Abstract_Concrete_6tasks_simseq_2seq_listtask_switchAB_fMRI,974048,21345,43251,1,9,9,B1,weapon,5,3#,3988.8140934,4093.8268985,105.0128051,0,0
2905,4$,1,32,42,11,21,52,62,Abstract_Concrete_6tasks_simseq_2seq_listtask_switchAB_fMRI,974048,21345,43251,1,10,10,A1,vest,2,4$,3988.8140934,4103.8261921,115.0120987,0,0
3583,4$,1,32,42,11,21,52,62,Abstract_Concrete_6tasks_simseq_2seq_listtask_switchAB_fMRI,974048,21345,43251,1,11,11,B3,vest,2,4$,3988.8140934,4113.8249121,125.0108187,0,0
0,,0,32,41,12,22,51,62,Abstract_Concrete_6tasks_simseq_2seq_listtask_switchAB_fMRI,974048,21345,43251,1,12,12,A2,helmet,1,9(,3988.8140934,4124.8261106,136.0120172,4133.8434582,145.0293648
2702,9(,1,31,42,11,22,51,61,Abstract_Concrete_6tasks_simseq_2seq_listtask_switchAB_fMRI,974048,21345,43251,1,13,13,B5,helmet,1,9(,3988.8140934,4141.8248733,153.0107799,0,0
6726,9(,1,31,42,12,22,51,62,Abstract_Concrete_6tasks_simseq_2seq_listtask_switchAB_fMRI,974048,21345,43251,1,14,14,A2,helmet,1,9(,3988.8140934,4151.8261012,163.0120078,0,0
2239,9(,1,32,42,12,21,51,62,Abstract_Concrete_6tasks_simseq_2seq_listtask_switchAB_fMRI,974048,21345,43251,1,15,15,B5,helmet,1,9(,3988.8140934,4165.8281619,177.0140685,0,0
3164,2@,1,32,42,12,22,51,62,Abstract_Concrete_6tasks_simseq_2seq_listtask_switchAB_fMRI,974048,21345,43251,1,16,16,A5,tools,6,2@,3988.8140934,4175.8256583,187.0115649,0,0
3545,3#,1,31,42,11,22,52,62,Abstract_Concrete_6tasks_simseq_2seq_listtask_switchAB_fMRI,974048,21345,43251,1,17,17,B1,weapon,5,3#,3988.8140934,4186.8243629,198.0102695,0,0
3054,3#,0,31,42,12,21,51,61,Abstract_Concrete_6tasks_simseq_2seq_listtask_switchAB_fMRI,974048,21345,43251,1,18,18,A5,tools,6,2@,3988.8140934,4197.8265483,209.0124549,4200.8952102,212.0811168
5438,2@,1,31,41,11,22,51,62,Abstract_Concrete_6tasks_simseq_2seq_listtask_switchAB_fMRI,974048,21345,43251,1,19,19,B4,tools,6,2@,3988.8140934,4208.8266385,220.0125451,0,0
3243,7&,1,32,41,11,22,52,61,Abstract_Concrete_6tasks_simseq_2seq_listtask_switchAB_fMRI,974048,21345,43251,1,20,20,A3,glasses,3,7&,3988.8140934,4221.8267634,233.012670000001,0,0
2256,9(,0,31,41,11,21,52,62,Abstract_Concrete_6tasks_simseq_2seq_listtask_switchAB_fMRI,974048,21345,43251,1,21,21,B2,glasses,3,7&,3988.8140934,4232.8247051,244.0106117,4235.0925319,246.2784385
2716,4$,1,32,42,11,21,51,62,Abstract_Concrete_6tasks_simseq_2seq_listtask_switchAB_fMRI,974048,21345,43251,1,22,22,A1,vest,2,4$,3988.8140934,4242.82521,254.0111166,0,0
4051,4$,1,31,41,12,21,52,61,Abstract_Concrete_6tasks_simseq_2seq_listtask_switchAB_fMRI,974048,21345,43251,1,23,23,B3,vest,2,4$,3988.8140934,4252.8243639,264.0102705,0,0
3150,7&,1,31,41,12,22,52,61,Abstract_Concrete_6tasks_simseq_2seq_listtask_switchAB_fMRI,974048,21345,43251,1,24,24,A3,glasses,3,7&,3988.8140934,4264.8249703,276.0108769,0,0
4272,4$,1,32,42,12,22,52,61,Abstract_Concrete_6tasks_simseq_2seq_listtask_switchAB_fMRI,974048,21345,43251,1,25,25,B3,vest,2,4$,3988.8140934,4275.8270231,287.0129297,0,0
6155,3#,1,32,41,12,21,52,62,Abstract_Concrete_6tasks_simseq_2seq_listtask_switchAB_fMRI,974048,21345,43251,1,26,26,A4,weapon,5,3#,3988.8140934,4287.8260759,299.011982500001,0,0
2764,9(,1,31,41,12,22,51,62,Abstract_Concrete_6tasks_simseq_2seq_listtask_switchAB_fMRI,974048,21345,43251,1,27,27,B5,helmet,1,9(,3988.8140934,4301.8274368,313.0133434,0,0
3886,4$,0,32,42,11,22,52,62,Abstract_Concrete_6tasks_simseq_2seq_listtask_switchAB_fMRI,974048,21345,43251,1,28,28,A4,weapon,5,3#,3988.8140934,4311.8246784,323.010585,4315.7262564,326.912163
2796,9(,0,32,41,11,22,52,62,Abstract_Concrete_6tasks_simseq_2seq_listtask_switchAB_fMRI,974048,21345,43251,1,29,29,B2,glasses,3,7&,3988.8140934,4322.8234762,334.0093828,4325.6303785,336.8162851
3122,9(,1,32,42,12,22,51,61,Abstract_Concrete_6tasks_simseq_2seq_listtask_switchAB_fMRI,974048,21345,43251,1,30,30,A2,helmet,1,9(,3988.8140934,4332.8246272,344.0105338,0,0
2168,4$,1,31,42,11,21,51,61,Abstract_Concrete_6tasks_simseq_2seq_listtask_switchAB_fMRI,974048,21345,43251,1,31,31,B3,vest,2,4$,3988.8140934,4343.8257219,355.0116285,0,0
4610,2@,1,32,42,12,21,51,62,Abstract_Concrete_6tasks_simseq_2seq_listtask_switchAB_fMRI,974048,21345,43251,1,32,32,A5,tools,6,2@,3988.8140934,4353.8258382,365.011744800001,0,0
2219,3#,1,31,42,11,21,51,61,Abstract_Concrete_6tasks_simseq_2seq_listtask_switchAB_fMRI,974048,21345,43251,1,33,33,B1,weapon,5,3#,3988.8140934,4365.8268547,377.0127613,0,0
1898,2@,1,32,41,11,22,52,61,Abstract_Concrete_6tasks_simseq_2seq_listtask_switchAB_fMRI,974048,21345,43251,1,34,34,A5,tools,6,2@,3988.8140934,4375.8261098,387.0120164,0,0
0,,0,32,42,12,21,51,61,Abstract_Concrete_6tasks_simseq_2seq_listtask_switchAB_fMRI,974048,21345,43251,1,35,35,B2,glasses,3,7&,3988.8140934,4384.8265477,396.012454300001,4393.8431811,405.0290877
3034,7&,1,32,41,11,22,52,62,Abstract_Concrete_6tasks_simseq_2seq_listtask_switchAB_fMRI,974048,21345,43251,1,36,36,A3,glasses,3,7&,3988.8140934,4401.8239544,413.009861,0,0
4614,2@,1,31,42,11,21,51,61,Abstract_Concrete_6tasks_simseq_2seq_listtask_switchAB_fMRI,974048,21345,43251,1,37,37,B4,tools,6,2@,3988.8140934,4412.8276026,424.0135092,0,0
3848,9(,1,31,42,12,21,51,61,Abstract_Concrete_6tasks_simseq_2seq_listtask_switchAB_fMRI,974048,21345,43251,1,38,38,A2,helmet,1,9(,3988.8140934,4424.8258346,436.0117412,0,0
1880,3#,1,31,42,11,21,52,62,Abstract_Concrete_6tasks_simseq_2seq_listtask_switchAB_fMRI,974048,21345,43251,1,39,39,B1,weapon,5,3#,3988.8140934,4435.8244797,447.0103863,0,0
2886,3#,1,31,42,11,21,51,61,Abstract_Concrete_6tasks_simseq_2seq_listtask_switchAB_fMRI,974048,21345,43251,1,40,40,A4,weapon,5,3#,3988.8140934,4444.8245348,456.0104414,0,0
3109,4$,1,32,41,11,21,52,62,Abstract_Concrete_6tasks_simseq_2seq_listtask_switchAB_fMRI,974048,21345,43251,2,1,41,A1,vest,2,4$,4512.7199801,4520.7306278,8.01064769999994,0,0
2124,4$,1,31,41,12,22,51,61,Abstract_Concrete_6tasks_simseq_2seq_listtask_switchAB_fMRI,974048,21345,43251,2,2,42,B3,vest,2,4$,4512.7199801,4531.7306243,19.0106442000006,0,0
3735,3#,1,31,42,12,22,51,62,Abstract_Concrete_6tasks_simseq_2seq_listtask_switchAB_fMRI,974048,21345,43251,2,3,43,A4,weapon,5,3#,4512.7199801,4541.7334792,29.0134991000004,0,0
1802,9(,1,31,42,11,21,52,62,Abstract_Concrete_6tasks_simseq_2seq_listtask_switchAB_fMRI,974048,21345,43251,2,4,44,B5,helmet,1,9(,4512.7199801,4552.7310528,40.0110727000001,0,0
2588,2@,1,31,41,12,21,51,61,Abstract_Concrete_6tasks_simseq_2seq_listtask_switchAB_fMRI,974048,21345,43251,2,5,45,A5,tools,6,2@,4512.7199801,4561.7314417,49.0114616000001,0,0
1896,9(,1,31,42,11,21,52,61,Abstract_Concrete_6tasks_simseq_2seq_listtask_switchAB_fMRI,974048,21345,43251,2,6,46,B5,helmet,1,9(,4512.7199801,4571.7309009,59.0109208000003,0,0
2060,2@,1,32,41,11,21,51,61,Abstract_Concrete_6tasks_simseq_2seq_listtask_switchAB_fMRI,974048,21345,43251,2,7,47,A5,tools,6,2@,4512.7199801,4580.7309951,68.011015,0,0
2073,3#,1,32,42,12,22,51,62,Abstract_Concrete_6tasks_simseq_2seq_listtask_switchAB_fMRI,974048,21345,43251,2,8,48,B1,weapon,5,3#,4512.7199801,4590.7318379,78.0118578000001,0,0
3035,7&,1,31,41,12,22,51,61,Abstract_Concrete_6tasks_simseq_2seq_listtask_switchAB_fMRI,974048,21345,43251,2,9,49,A3,glasses,3,7&,4512.7199801,4600.732104,88.0121239,0,0
4250,2@,1,31,41,11,21,51,62,Abstract_Concrete_6tasks_simseq_2seq_listtask_switchAB_fMRI,974048,21345,43251,2,10,50,B4,tools,6,2@,4512.7199801,4611.7316622,99.0116821000001,0,0
3771,3#,1,32,42,11,21,51,61,Abstract_Concrete_6tasks_simseq_2seq_listtask_switchAB_fMRI,974048,21345,43251,2,11,51,A4,weapon,5,3#,4512.7199801,4623.731599,111.0116189,0,0
3353,4$,1,31,41,12,21,52,61,Abstract_Concrete_6tasks_simseq_2seq_listtask_switchAB_fMRI,974048,21345,43251,2,12,52,B3,vest,2,4$,4512.7199801,4634.7330887,122.0131086,0,0
2479,4$,1,31,42,11,21,51,62,Abstract_Concrete_6tasks_simseq_2seq_listtask_switchAB_fMRI,974048,21345,43251,2,13,53,A1,vest,2,4$,4512.7199801,4645.731893,133.0119129,0,0
1635,3#,1,32,41,11,21,52,62,Abstract_Concrete_6tasks_simseq_2seq_listtask_switchAB_fMRI,974048,21345,43251,2,14,54,B1,weapon,5,3#,4512.7199801,4655.7322282,143.0122481,0,0
2461,2@,1,32,42,11,22,52,62,Abstract_Concrete_6tasks_simseq_2seq_listtask_switchAB_fMRI,974048,21345,43251,2,15,55,A5,tools,6,2@,4512.7199801,4664.7308326,152.010852500001,0,0
3653,2@,1,32,42,12,22,52,61,Abstract_Concrete_6tasks_simseq_2seq_listtask_switchAB_fMRI,974048,21345,43251,2,16,56,B4,tools,6,2@,4512.7199801,4674.7333072,162.0133271,0,0
2074,4$,1,32,41,11,22,51,62,Abstract_Concrete_6tasks_simseq_2seq_listtask_switchAB_fMRI,974048,21345,43251,2,17,57,A1,vest,2,4$,4512.7199801,4685.7324607,173.0124806,0,0
2508,7&,1,32,41,12,22,51,61,Abstract_Concrete_6tasks_simseq_2seq_listtask_switchAB_fMRI,974048,21345,43251,2,18,58,B2,glasses,3,7&,4512.7199801,4695.7320507,183.012070600001,0,0
3083,9(,1,31,41,11,21,51,61,Abstract_Concrete_6tasks_simseq_2seq_listtask_switchAB_fMRI,974048,21345,43251,2,19,59,A2,helmet,1,9(,4512.7199801,4705.7302579,193.0102778,0,0
2572,2@,1,32,42,12,21,51,61,Abstract_Concrete_6tasks_simseq_2seq_listtask_switchAB_fMRI,974048,21345,43251,2,20,60,B4,tools,6,2@,4512.7199801,4716.7326468,204.0126667,0,0
2757,3#,1,31,41,12,22,52,62,Abstract_Concrete_6tasks_simseq_2seq_listtask_switchAB_fMRI,974048,21345,43251,2,21,61,A4,weapon,5,3#,4512.7199801,4726.7312476,214.0112675,0,0
3705,7&,1,31,41,12,22,51,62,Abstract_Concrete_6tasks_simseq_2seq_listtask_switchAB_fMRI,974048,21345,43251,2,22,62,B2,glasses,3,7&,4512.7199801,4736.7312733,224.0112932,0,0
2876,9(,1,31,41,11,22,51,61,Abstract_Concrete_6tasks_simseq_2seq_listtask_switchAB_fMRI,974048,21345,43251,2,23,63,A2,helmet,1,9(,4512.7199801,4747.731406,235.0114259,0,0
1783,3#,1,31,42,11,21,51,61,Abstract_Concrete_6tasks_simseq_2seq_listtask_switchAB_fMRI,974048,21345,43251,2,24,64,B1,weapon,5,3#,4512.7199801,4757.7299171,245.009937000001,0,0
1942,4$,1,32,42,11,22,51,62,Abstract_Concrete_6tasks_simseq_2seq_listtask_switchAB_fMRI,974048,21345,43251,2,25,65,A1,vest,2,4$,4512.7199801,4766.7308955,254.0109154,0,0
1897,7&,1,32,42,11,21,51,61,Abstract_Concrete_6tasks_simseq_2seq_listtask_switchAB_fMRI,974048,21345,43251,2,26,66,B2,glasses,3,7&,4512.7199801,4775.7315416,263.0115615,0,0
2811,7&,1,31,41,12,21,51,62,Abstract_Concrete_6tasks_simseq_2seq_listtask_switchAB_fMRI,974048,21345,43251,2,27,67,A3,glasses,3,7&,4512.7199801,4784.731286,272.0113059,0,0
3519,4$,1,32,42,11,22,52,61,Abstract_Concrete_6tasks_simseq_2seq_listtask_switchAB_fMRI,974048,21345,43251,2,28,68,B3,vest,2,4$,4512.7199801,4794.7330505,282.0130704,0,0
2072,3#,1,32,42,11,22,51,62,Abstract_Concrete_6tasks_simseq_2seq_listtask_switchAB_fMRI,974048,21345,43251,2,29,69,A4,weapon,5,3#,4512.7199801,4805.7303674,293.010387300001,0,0
3577,7&,1,32,42,11,22,51,61,Abstract_Concrete_6tasks_simseq_2seq_listtask_switchAB_fMRI,974048,21345,43251,2,30,70,B2,glasses,3,7&,4512.7199801,4815.7319253,303.0119452,0,0
2475,9(,1,32,41,11,21,51,61,Abstract_Concrete_6tasks_simseq_2seq_listtask_switchAB_fMRI,974048,21345,43251,2,31,71,A2,helmet,1,9(,4512.7199801,4826.7327005,314.0127204,0,0
1598,3#,1,31,41,12,22,52,61,Abstract_Concrete_6tasks_simseq_2seq_listtask_switchAB_fMRI,974048,21345,43251,2,32,72,B1,weapon,5,3#,4512.7199801,4836.732598,324.0126179,0,0
3238,7&,1,32,42,11,21,52,62,Abstract_Concrete_6tasks_simseq_2seq_listtask_switchAB_fMRI,974048,21345,43251,2,33,73,A3,glasses,3,7&,4512.7199801,4845.7314615,333.0114814,0,0
3267,9(,1,31,42,11,22,51,62,Abstract_Concrete_6tasks_simseq_2seq_listtask_switchAB_fMRI,974048,21345,43251,2,34,74,B5,helmet,1,9(,4512.7199801,4856.7316809,344.011700800001,0,0
3371,9(,1,32,42,11,22,52,61,Abstract_Concrete_6tasks_simseq_2seq_listtask_switchAB_fMRI,974048,21345,43251,2,35,75,A2,helmet,1,9(,4512.7199801,4867.7315037,355.0115236,0,0
3719,9(,1,32,42,11,22,51,61,Abstract_Concrete_6tasks_simseq_2seq_listtask_switchAB_fMRI,974048,21345,43251,2,36,76,B5,helmet,1,9(,4512.7199801,4878.7330073,366.013027200001,0,0
2247,2@,1,31,41,12,21,52,61,Abstract_Concrete_6tasks_simseq_2seq_listtask_switchAB_fMRI,974048,21345,43251,2,37,77,A5,tools,6,2@,4512.7199801,4889.7352371,377.015257,0,0
3115,4$,1,32,42,12,21,52,61,Abstract_Concrete_6tasks_simseq_2seq_listtask_switchAB_fMRI,974048,21345,43251,2,38,78,B3,vest,2,4$,4512.7199801,4899.7327565,387.0127764,0,0
3118,7&,1,31,42,12,22,51,62,Abstract_Concrete_6tasks_simseq_2seq_listtask_switchAB_fMRI,974048,21345,43251,2,39,79,A3,glasses,3,7&,4512.7199801,4910.7308425,398.0108624,0,0
2441,2@,1,31,42,11,21,52,62,Abstract_Concrete_6tasks_simseq_2seq_listtask_switchAB_fMRI,974048,21345,43251,2,40,80,B4,tools,6,2@,4512.7199801,4921.7335261,409.013546,0,0
3460,3#,1,32,41,12,21,52,62,Abstract_Concrete_6tasks_simseq_2seq_listtask_switchAB_fMRI,974048,21345,43251,3,1,81,A4,weapon,5,3#,4971.8187014,4979.828645,8.00994360000004,0,0
3095,2@,1,31,41,12,22,52,61,Abstract_Concrete_6tasks_simseq_2seq_listtask_switchAB_fMRI,974048,21345,43251,3,2,82,B4,tools,6,2@,4971.8187014,4990.8294481,19.0107467000007,0,0
1170,7&,1,32,41,12,21,52,61,Abstract_Concrete_6tasks_simseq_2seq_listtask_switchAB_fMRI,974048,21345,43251,3,3,83,A3,glasses,3,7&,4971.8187014,5001.8306058,30.0119044000003,0,0
1325,4$,1,32,42,12,21,52,62,Abstract_Concrete_6tasks_simseq_2seq_listtask_switchAB_fMRI,974048,21345,43251,3,4,84,B3,vest,2,4$,4971.8187014,5010.831928,39.0132266000001,0,0
3238,3#,1,32,42,11,22,52,62,Abstract_Concrete_6tasks_simseq_2seq_listtask_switchAB_fMRI,974048,21345,43251,3,5,85,A4,weapon,5,3#,4971.8187014,5019.8310053,48.0123039,0,0
2324,7&,1,31,42,12,22,51,62,Abstract_Concrete_6tasks_simseq_2seq_listtask_switchAB_fMRI,974048,21345,43251,3,6,86,B2,glasses,3,7&,4971.8187014,5030.8324232,59.0137218000009,0,0
2732,7&,1,31,41,11,21,52,62,Abstract_Concrete_6tasks_simseq_2seq_listtask_switchAB_fMRI,974048,21345,43251,3,7,87,A3,glasses,3,7&,4971.8187014,5040.8300745,69.0113731000001,0,0
2181,3#,1,31,42,11,21,51,61,Abstract_Concrete_6tasks_simseq_2seq_listtask_switchAB_fMRI,974048,21345,43251,3,8,88,B1,weapon,5,3#,4971.8187014,5050.8309298,79.0122284000008,0,0
3722,2@,1,32,41,12,22,51,62,Abstract_Concrete_6tasks_simseq_2seq_listtask_switchAB_fMRI,974048,21345,43251,3,9,89,A5,tools,6,2@,4971.8187014,5060.832059,89.0133576000007,0,0
3760,7&,1,32,41,12,22,51,62,Abstract_Concrete_6tasks_simseq_2seq_listtask_switchAB_fMRI,974048,21345,43251,3,10,90,B2,glasses,3,7&,4971.8187014,5071.8315804,100.012879000001,0,0
2412,2@,1,32,41,12,22,51,62,Abstract_Concrete_6tasks_simseq_2seq_listtask_switchAB_fMRI,974048,21345,43251,3,11,91,A5,tools,6,2@,4971.8187014,5082.831593,111.0128916,0,0
2806,7&,1,32,41,12,21,51,62,Abstract_Concrete_6tasks_simseq_2seq_listtask_switchAB_fMRI,974048,21345,43251,3,12,92,B2,glasses,3,7&,4971.8187014,5092.8309854,121.012284,0,0
2604,4$,1,31,41,12,22,52,62,Abstract_Concrete_6tasks_simseq_2seq_listtask_switchAB_fMRI,974048,21345,43251,3,13,93,A1,vest,2,4$,4971.8187014,5102.8303707,131.0116693,0,0
5175,9(,1,32,41,12,21,51,62,Abstract_Concrete_6tasks_simseq_2seq_listtask_switchAB_fMRI,974048,21345,43251,3,14,94,B5,helmet,1,9(,4971.8187014,5112.8316574,141.012956,0,0
2691,2@,1,32,42,12,21,52,62,Abstract_Concrete_6tasks_simseq_2seq_listtask_switchAB_fMRI,974048,21345,43251,3,15,95,A5,tools,6,2@,4971.8187014,5125.8322941,154.0135927,0,0
3009,2@,1,32,42,12,22,51,61,Abstract_Concrete_6tasks_simseq_2seq_listtask_switchAB_fMRI,974048,21345,43251,3,16,96,B4,tools,6,2@,4971.8187014,5135.8310266,164.0123252,0,0
2925,2@,1,32,42,12,22,51,61,Abstract_Concrete_6tasks_simseq_2seq_listtask_switchAB_fMRI,974048,21345,43251,3,17,97,A5,tools,6,2@,4971.8187014,5146.8309942,175.0122928,0,0
2506,2@,1,32,42,11,22,51,61,Abstract_Concrete_6tasks_simseq_2seq_listtask_switchAB_fMRI,974048,21345,43251,3,18,98,B4,tools,6,2@,4971.8187014,5156.8297971,185.011095700001,0,0
2327,4$,1,31,41,11,22,51,61,Abstract_Concrete_6tasks_simseq_2seq_listtask_switchAB_fMRI,974048,21345,43251,3,19,99,A1,vest,2,4$,4971.8187014,5166.8309908,195.012289400001,0,0
2905,9(,1,31,41,12,22,51,61,Abstract_Concrete_6tasks_simseq_2seq_listtask_switchAB_fMRI,974048,21345,43251,3,20,100,B5,helmet,1,9(,4971.8187014,5176.8296507,205.0109493,0,0
2432,9(,1,32,42,11,22,52,61,Abstract_Concrete_6tasks_simseq_2seq_listtask_switchAB_fMRI,974048,21345,43251,3,21,101,A2,helmet,1,9(,4971.8187014,5186.829211,215.010509600001,0,0
1915,3#,1,32,42,12,21,51,62,Abstract_Concrete_6tasks_simseq_2seq_listtask_switchAB_fMRI,974048,21345,43251,3,22,102,B1,weapon,5,3#,4971.8187014,5196.8306763,225.0119749,0,0
3619,7&,0,32,42,12,22,51,61,Abstract_Concrete_6tasks_simseq_2seq_listtask_switchAB_fMRI,974048,21345,43251,3,23,103,A2,helmet,1,9(,4971.8187014,5205.8300205,234.0113191,5209.4672092,237.648507800001
2869,3#,1,32,42,11,21,52,61,Abstract_Concrete_6tasks_simseq_2seq_listtask_switchAB_fMRI,974048,21345,43251,3,24,104,B1,weapon,5,3#,4971.8187014,5216.8294028,245.0107014,0,0
2387,7&,1,32,41,12,22,51,61,Abstract_Concrete_6tasks_simseq_2seq_listtask_switchAB_fMRI,974048,21345,43251,3,25,105,A3,glasses,3,7&,4971.8187014,5226.82968,255.0109786,0,0
1627,3#,1,32,42,11,21,52,61,Abstract_Concrete_6tasks_simseq_2seq_listtask_switchAB_fMRI,974048,21345,43251,3,26,106,B1,weapon,5,3#,4971.8187014,5236.8301673,265.0114659,0,0
2975,3#,1,31,41,11,22,52,61,Abstract_Concrete_6tasks_simseq_2seq_listtask_switchAB_fMRI,974048,21345,43251,3,27,107,A4,weapon,5,3#,4971.8187014,5245.829291,274.0105896,0,0
5733,3#,0,31,41,12,21,51,62,Abstract_Concrete_6tasks_simseq_2seq_listtask_switchAB_fMRI,974048,21345,43251,3,28,108,B3,vest,2,4$,4971.8187014,5255.8315699,284.012868500001,5261.5782066,289.759505200001
2039,4$,1,32,41,12,22,52,62,Abstract_Concrete_6tasks_simseq_2seq_listtask_switchAB_fMRI,974048,21345,43251,3,29,109,A1,vest,2,4$,4971.8187014,5268.8273149,297.0086135,0,0
2886,9(,1,31,41,12,22,51,62,Abstract_Concrete_6tasks_simseq_2seq_listtask_switchAB_fMRI,974048,21345,43251,3,30,110,B5,helmet,1,9(,4971.8187014,5278.8331176,307.014416200001,0,0
3748,7&,1,31,42,12,22,51,62,Abstract_Concrete_6tasks_simseq_2seq_listtask_switchAB_fMRI,974048,21345,43251,3,31,111,A3,glasses,3,7&,4971.8187014,5288.8300801,317.0113787,0,0
1873,7&,1,32,42,11,22,51,62,Abstract_Concrete_6tasks_simseq_2seq_listtask_switchAB_fMRI,974048,21345,43251,3,32,112,B2,glasses,3,7&,4971.8187014,5299.8289472,328.0102458,0,0
1366,3#,1,32,42,12,21,51,62,Abstract_Concrete_6tasks_simseq_2seq_listtask_switchAB_fMRI,974048,21345,43251,3,33,113,A4,weapon,5,3#,4971.8187014,5308.8315096,337.0128082,0,0
2522,9(,1,32,41,11,21,52,62,Abstract_Concrete_6tasks_simseq_2seq_listtask_switchAB_fMRI,974048,21345,43251,3,34,114,B5,helmet,1,9(,4971.8187014,5317.8314632,346.012761800001,0,0
2696,9(,1,31,42,12,22,52,61,Abstract_Concrete_6tasks_simseq_2seq_listtask_switchAB_fMRI,974048,21345,43251,3,35,115,A2,helmet,1,9(,4971.8187014,5327.8298169,356.0111155,0,0
5490,4$,1,32,41,12,21,51,61,Abstract_Concrete_6tasks_simseq_2seq_listtask_switchAB_fMRI,974048,21345,43251,3,36,116,B3,vest,2,4$,4971.8187014,5337.8300913,366.011389900001,0,0
3438,9(,1,31,41,11,21,52,61,Abstract_Concrete_6tasks_simseq_2seq_listtask_switchAB_fMRI,974048,21345,43251,3,37,117,A2,helmet,1,9(,4971.8187014,5350.8313712,379.0126698,0,0
2547,4$,1,32,41,11,21,52,62,Abstract_Concrete_6tasks_simseq_2seq_listtask_switchAB_fMRI,974048,21345,43251,3,38,118,B3,vest,2,4$,4971.8187014,5361.8297415,390.0110401,0,0
2499,4$,1,32,41,11,22,52,62,Abstract_Concrete_6tasks_simseq_2seq_listtask_switchAB_fMRI,974048,21345,43251,3,39,119,A1,vest,2,4$,4971.8187014,5371.828857,400.010155600001,0,0
3889,2@,1,32,42,12,21,51,62,Abstract_Concrete_6tasks_simseq_2seq_listtask_switchAB_fMRI,974048,21345,43251,3,40,120,B4,tools,6,2@,4971.8187014,5381.8297983,410.011096900001,0,0
3409,9(,1,32,42,11,22,51,62,Abstract_Concrete_6tasks_simseq_2seq_listtask_switchAB_fMRI,974048,21345,43251,4,1,121,B5,helmet,1,9(,5496.3087258,5504.3191449,8.01041910000004,0,0
1861,4$,1,32,42,12,21,51,62,Abstract_Concrete_6tasks_simseq_2seq_listtask_switchAB_fMRI,974048,21345,43251,4,2,122,A1,vest,2,4$,5496.3087258,5515.3180663,19.0093405000007,0,0
3967,4$,1,32,42,12,22,51,61,Abstract_Concrete_6tasks_simseq_2seq_listtask_switchAB_fMRI,974048,21345,43251,4,3,123,B3,vest,2,4$,5496.3087258,5524.3194713,28.0107455000007,0,0
2400,7&,1,32,41,12,22,51,61,Abstract_Concrete_6tasks_simseq_2seq_listtask_switchAB_fMRI,974048,21345,43251,4,4,124,A3,glasses,3,7&,5496.3087258,5535.3202108,39.011485,0,0
3596,4$,1,31,41,11,21,52,61,Abstract_Concrete_6tasks_simseq_2seq_listtask_switchAB_fMRI,974048,21345,43251,4,5,125,B3,vest,2,4$,5496.3087258,5545.3206209,49.0118951000004,0,0
1969,4$,1,31,42,11,22,52,62,Abstract_Concrete_6tasks_simseq_2seq_listtask_switchAB_fMRI,974048,21345,43251,4,6,126,A1,vest,2,4$,5496.3087258,5556.3207953,60.0120695000005,0,0
2802,3#,1,32,41,11,21,52,61,Abstract_Concrete_6tasks_simseq_2seq_listtask_switchAB_fMRI,974048,21345,43251,4,7,127,B1,weapon,5,3#,5496.3087258,5565.3200829,69.0113571000002,0,0
2903,9(,1,32,41,12,22,51,62,Abstract_Concrete_6tasks_simseq_2seq_listtask_switchAB_fMRI,974048,21345,43251,4,8,128,A2,helmet,1,9(,5496.3087258,5575.3209879,79.0122621,0,0
2314,2@,1,32,42,12,22,52,62,Abstract_Concrete_6tasks_simseq_2seq_listtask_switchAB_fMRI,974048,21345,43251,4,9,129,B4,tools,6,2@,5496.3087258,5585.3215555,89.0128297000001,0,0
2689,3#,1,32,42,11,22,52,62,Abstract_Concrete_6tasks_simseq_2seq_listtask_switchAB_fMRI,974048,21345,43251,4,10,130,A4,weapon,5,3#,5496.3087258,5595.3209579,99.0122321000008,0,0
2414,3#,1,32,42,11,21,52,62,Abstract_Concrete_6tasks_simseq_2seq_listtask_switchAB_fMRI,974048,21345,43251,4,11,131,B1,weapon,5,3#,5496.3087258,5605.3206517,109.0119259,0,0
2241,3#,1,31,41,12,22,52,62,Abstract_Concrete_6tasks_simseq_2seq_listtask_switchAB_fMRI,974048,21345,43251,4,12,132,A4,weapon,5,3#,5496.3087258,5615.3209131,119.012187300001,0,0
2036,7&,1,31,41,11,22,51,61,Abstract_Concrete_6tasks_simseq_2seq_listtask_switchAB_fMRI,974048,21345,43251,4,13,133,B2,glasses,3,7&,5496.3087258,5625.3216855,129.0129597,0,0
2773,7&,1,32,41,11,22,52,62,Abstract_Concrete_6tasks_simseq_2seq_listtask_switchAB_fMRI,974048,21345,43251,4,14,134,A3,glasses,3,7&,5496.3087258,5635.3212231,139.0124973,0,0
2741,4$,1,31,42,11,21,52,62,Abstract_Concrete_6tasks_simseq_2seq_listtask_switchAB_fMRI,974048,21345,43251,4,15,135,B3,vest,2,4$,5496.3087258,5645.3202695,149.0115437,0,0
1631,7&,1,32,42,12,21,52,61,Abstract_Concrete_6tasks_simseq_2seq_listtask_switchAB_fMRI,974048,21345,43251,4,16,136,A3,glasses,3,7&,5496.3087258,5655.3207997,159.0120739,0,0
2961,7&,1,31,41,12,22,51,61,Abstract_Concrete_6tasks_simseq_2seq_listtask_switchAB_fMRI,974048,21345,43251,4,17,137,B2,glasses,3,7&,5496.3087258,5664.3199612,168.0112354,0,0
7164,2@,1,32,41,11,22,51,62,Abstract_Concrete_6tasks_simseq_2seq_listtask_switchAB_fMRI,974048,21345,43251,4,18,138,A5,tools,6,2@,5496.3087258,5674.3196763,178.0109505,0,0
2920,3#,1,31,41,11,21,52,61,Abstract_Concrete_6tasks_simseq_2seq_listtask_switchAB_fMRI,974048,21345,43251,4,19,139,B1,weapon,5,3#,5496.3087258,5689.3204061,193.0116803,0,0
3593,9(,1,32,42,12,21,52,62,Abstract_Concrete_6tasks_simseq_2seq_listtask_switchAB_fMRI,974048,21345,43251,4,20,140,A2,helmet,1,9(,5496.3087258,5699.3198919,203.0111661,0,0
1254,3#,1,32,42,11,22,52,62,Abstract_Concrete_6tasks_simseq_2seq_listtask_switchAB_fMRI,974048,21345,43251,4,21,141,B1,weapon,5,3#,5496.3087258,5710.3203285,214.0116027,0,0
4195,4$,1,32,41,11,22,52,61,Abstract_Concrete_6tasks_simseq_2seq_listtask_switchAB_fMRI,974048,21345,43251,4,22,142,A1,vest,2,4$,5496.3087258,5719.3227712,223.0140454,0,0
3289,9(,1,31,42,11,21,52,61,Abstract_Concrete_6tasks_simseq_2seq_listtask_switchAB_fMRI,974048,21345,43251,4,23,143,B5,helmet,1,9(,5496.3087258,5731.3195374,235.0108116,0,0
5114,9(,1,31,42,12,21,52,61,Abstract_Concrete_6tasks_simseq_2seq_listtask_switchAB_fMRI,974048,21345,43251,4,24,144,A2,helmet,1,9(,5496.3087258,5742.3195112,246.010785400001,0,0
3142,7&,1,31,42,11,22,51,61,Abstract_Concrete_6tasks_simseq_2seq_listtask_switchAB_fMRI,974048,21345,43251,4,25,145,B2,glasses,3,7&,5496.3087258,5755.3217678,259.013042,0,0
3039,4$,1,32,41,11,21,51,61,Abstract_Concrete_6tasks_simseq_2seq_listtask_switchAB_fMRI,974048,21345,43251,4,26,146,A1,vest,2,4$,5496.3087258,5766.3193994,270.010673600001,0,0
4793,9(,1,32,41,11,22,51,62,Abstract_Concrete_6tasks_simseq_2seq_listtask_switchAB_fMRI,974048,21345,43251,4,27,147,B5,helmet,1,9(,5496.3087258,5777.3204846,281.0117588,0,0
2210,3#,1,32,41,12,22,51,61,Abstract_Concrete_6tasks_simseq_2seq_listtask_switchAB_fMRI,974048,21345,43251,4,28,148,A4,weapon,5,3#,5496.3087258,5789.3190483,293.0103225,0,0
4265,2@,1,32,41,11,22,52,61,Abstract_Concrete_6tasks_simseq_2seq_listtask_switchAB_fMRI,974048,21345,43251,4,29,149,B4,tools,6,2@,5496.3087258,5799.3202068,303.011481,0,0
2607,2@,1,32,42,11,22,51,61,Abstract_Concrete_6tasks_simseq_2seq_listtask_switchAB_fMRI,974048,21345,43251,4,30,150,A5,tools,6,2@,5496.3087258,5811.3203281,315.0116023,0,0
3539,2@,1,31,42,12,22,51,61,Abstract_Concrete_6tasks_simseq_2seq_listtask_switchAB_fMRI,974048,21345,43251,4,31,151,B4,tools,6,2@,5496.3087258,5821.3220325,325.013306700001,0,0
2676,9(,1,32,41,11,21,51,62,Abstract_Concrete_6tasks_simseq_2seq_listtask_switchAB_fMRI,974048,21345,43251,4,32,152,A2,helmet,1,9(,5496.3087258,5832.320096,336.011370200001,0,0
3482,4$,1,32,41,12,22,52,61,Abstract_Concrete_6tasks_simseq_2seq_listtask_switchAB_fMRI,974048,21345,43251,4,33,153,B3,vest,2,4$,5496.3087258,5842.319463,346.0107372,0,0
1743,7&,1,32,41,12,21,51,61,Abstract_Concrete_6tasks_simseq_2seq_listtask_switchAB_fMRI,974048,21345,43251,4,34,154,A3,glasses,3,7&,5496.3087258,5853.3197053,357.010979500001,0,0
5956,9(,0,32,42,12,22,51,61,Abstract_Concrete_6tasks_simseq_2seq_listtask_switchAB_fMRI,974048,21345,43251,4,35,155,B4,tools,6,2@,5496.3087258,5862.3201325,366.0114067,5868.2934763,371.984750500001
1484,3#,1,31,42,12,22,51,61,Abstract_Concrete_6tasks_simseq_2seq_listtask_switchAB_fMRI,974048,21345,43251,4,36,156,A4,weapon,5,3#,5496.3087258,5875.3190669,379.0103411,0,0
3698,9(,1,32,42,12,22,52,62,Abstract_Concrete_6tasks_simseq_2seq_listtask_switchAB_fMRI,974048,21345,43251,4,37,157,B5,helmet,1,9(,5496.3087258,5884.3202915,388.011565700001,0,0
2782,2@,1,31,42,12,22,51,62,Abstract_Concrete_6tasks_simseq_2seq_listtask_switchAB_fMRI,974048,21345,43251,4,38,158,A5,tools,6,2@,5496.3087258,5895.3197463,399.0110205,0,0
1846,7&,1,31,41,12,21,51,61,Abstract_Concrete_6tasks_simseq_2seq_listtask_switchAB_fMRI,974048,21345,43251,4,39,159,B2,glasses,3,7&,5496.3087258,5905.3188601,409.010134300001,0,0
2548,2@,1,32,42,11,22,51,61,Abstract_Concrete_6tasks_simseq_2seq_listtask_switchAB_fMRI,974048,21345,43251,4,40,160,A5,tools,6,2@,5496.3087258,5914.3191552,418.0104294,0,0
4239,9(,1,32,42,11,22,52,61,Abstract_Concrete_6tasks_simseq_2seq_listtask_switchAB_fMRI,974048,21345,43251,5,1,161,A2,helmet,1,9(,5976.2829445,5984.2929112,8.0099667000004,0,0
2308,7&,1,32,41,12,22,52,61,Abstract_Concrete_6tasks_simseq_2seq_listtask_switchAB_fMRI,974048,21345,43251,5,2,162,B2,glasses,3,7&,5976.2829445,5996.2931129,20.0101684000001,0,0
1806,2@,1,32,41,11,22,52,61,Abstract_Concrete_6tasks_simseq_2seq_listtask_switchAB_fMRI,974048,21345,43251,5,3,163,A5,tools,6,2@,5976.2829445,6006.2965131,30.0135686000003,0,0
1212,3#,1,32,41,12,22,52,61,Abstract_Concrete_6tasks_simseq_2seq_listtask_switchAB_fMRI,974048,21345,43251,5,4,164,B1,weapon,5,3#,5976.2829445,6015.293889,39.0109444999998,0,0
1765,7&,1,32,42,12,22,52,61,Abstract_Concrete_6tasks_simseq_2seq_listtask_switchAB_fMRI,974048,21345,43251,5,5,165,A3,glasses,3,7&,5976.2829445,6024.2946843,48.0117398000002,0,0
1871,9(,1,31,41,12,21,51,62,Abstract_Concrete_6tasks_simseq_2seq_listtask_switchAB_fMRI,974048,21345,43251,5,6,166,B5,helmet,1,9(,5976.2829445,6033.2956811,57.0127366000006,0,0
1345,3#,1,31,42,11,22,51,62,Abstract_Concrete_6tasks_simseq_2seq_listtask_switchAB_fMRI,974048,21345,43251,5,7,167,A4,weapon,5,3#,5976.2829445,6042.2945052,66.0115606999998,0,0
4884,2@,1,32,41,11,22,51,61,Abstract_Concrete_6tasks_simseq_2seq_listtask_switchAB_fMRI,974048,21345,43251,5,8,168,B4,tools,6,2@,5976.2829445,6051.2956037,75.0126592000006,0,0
3951,2@,1,31,42,12,21,51,61,Abstract_Concrete_6tasks_simseq_2seq_listtask_switchAB_fMRI,974048,21345,43251,5,9,169,A5,tools,6,2@,5976.2829445,6063.2929807,87.0100362000003,0,0
2816,9(,1,31,42,11,22,52,61,Abstract_Concrete_6tasks_simseq_2seq_listtask_switchAB_fMRI,974048,21345,43251,5,10,170,B5,helmet,1,9(,5976.2829445,6074.2937565,98.0108120000004,0,0
2298,7&,1,31,42,11,21,51,61,Abstract_Concrete_6tasks_simseq_2seq_listtask_switchAB_fMRI,974048,21345,43251,5,11,171,A3,glasses,3,7&,5976.2829445,6084.2949076,108.011963100001,0,0
2807,2@,1,32,42,12,21,52,61,Abstract_Concrete_6tasks_simseq_2seq_listtask_switchAB_fMRI,974048,21345,43251,5,12,172,B4,tools,6,2@,5976.2829445,6094.2947715,118.011827,0,0
1848,4$,1,32,42,12,21,51,61,Abstract_Concrete_6tasks_simseq_2seq_listtask_switchAB_fMRI,974048,21345,43251,5,13,173,A1,vest,2,4$,5976.2829445,6104.2940509,128.0111064,0,0
2785,4$,1,31,42,12,21,52,61,Abstract_Concrete_6tasks_simseq_2seq_listtask_switchAB_fMRI,974048,21345,43251,5,14,174,B3,vest,2,4$,5976.2829445,6113.2937043,137.0107598,0,0
1042,7&,1,32,41,11,22,51,62,Abstract_Concrete_6tasks_simseq_2seq_listtask_switchAB_fMRI,974048,21345,43251,5,15,175,A3,glasses,3,7&,5976.2829445,6123.2921968,147.0092523,0,0
1460,4$,1,31,42,12,21,51,61,Abstract_Concrete_6tasks_simseq_2seq_listtask_switchAB_fMRI,974048,21345,43251,5,16,176,B3,vest,2,4$,5976.2829445,6132.2963506,156.0134061,0,0
2857,9(,1,31,42,12,21,51,62,Abstract_Concrete_6tasks_simseq_2seq_listtask_switchAB_fMRI,974048,21345,43251,5,17,177,A2,helmet,1,9(,5976.2829445,6141.2946783,165.0117338,0,0
1841,2@,0,32,41,11,21,52,62,Abstract_Concrete_6tasks_simseq_2seq_listtask_switchAB_fMRI,974048,21345,43251,5,18,178,B5,helmet,1,9(,5976.2829445,6151.2960117,175.0130672,6153.1523117,176.8693672
1768,4$,1,31,41,12,22,51,62,Abstract_Concrete_6tasks_simseq_2seq_listtask_switchAB_fMRI,974048,21345,43251,5,19,179,A1,vest,2,4$,5976.2829445,6160.2935005,184.010556,0,0
1246,3#,1,32,42,12,21,51,61,Abstract_Concrete_6tasks_simseq_2seq_listtask_switchAB_fMRI,974048,21345,43251,5,20,180,B1,weapon,5,3#,5976.2829445,6169.2960727,193.0131282,0,0
2069,9(,1,32,41,12,21,52,62,Abstract_Concrete_6tasks_simseq_2seq_listtask_switchAB_fMRI,974048,21345,43251,5,21,181,A2,helmet,1,9(,5976.2829445,6178.2965795,202.013635,0,0
3630,2@,1,32,41,11,22,52,62,Abstract_Concrete_6tasks_simseq_2seq_listtask_switchAB_fMRI,974048,21345,43251,5,22,182,B4,tools,6,2@,5976.2829445,6188.2956362,212.012691700001,0,0
1791,4$,1,31,42,11,22,52,61,Abstract_Concrete_6tasks_simseq_2seq_listtask_switchAB_fMRI,974048,21345,43251,5,23,183,A1,vest,2,4$,5976.2829445,6199.2944773,223.0115328,0,0
4889,3#,0,32,42,12,21,52,62,Abstract_Concrete_6tasks_simseq_2seq_listtask_switchAB_fMRI,974048,21345,43251,5,24,184,B3,vest,2,4$,5976.2829445,6208.2945838,232.0116393,6213.1981182,236.9151737
1514,3#,1,31,42,12,22,52,61,Abstract_Concrete_6tasks_simseq_2seq_listtask_switchAB_fMRI,974048,21345,43251,5,25,185,A4,weapon,5,3#,5976.2829445,6220.2931372,244.010192700001,0,0
1944,7&,1,32,41,12,21,51,61,Abstract_Concrete_6tasks_simseq_2seq_listtask_switchAB_fMRI,974048,21345,43251,5,26,186,B2,glasses,3,7&,5976.2829445,6229.2935079,253.0105634,0,0
1349,3#,1,32,41,11,21,51,62,Abstract_Concrete_6tasks_simseq_2seq_listtask_switchAB_fMRI,974048,21345,43251,5,27,187,A4,weapon,5,3#,5976.2829445,6238.2940034,262.011058900001,0,0
2974,2@,1,31,42,11,22,51,62,Abstract_Concrete_6tasks_simseq_2seq_listtask_switchAB_fMRI,974048,21345,43251,5,28,188,B4,tools,6,2@,5976.2829445,6247.2965744,271.013629900001,0,0
1700,2@,1,32,41,11,21,52,62,Abstract_Concrete_6tasks_simseq_2seq_listtask_switchAB_fMRI,974048,21345,43251,5,29,189,A5,tools,6,2@,5976.2829445,6257.2940423,281.0110978,0,0
2001,7&,1,31,41,12,21,51,62,Abstract_Concrete_6tasks_simseq_2seq_listtask_switchAB_fMRI,974048,21345,43251,5,30,190,B2,glasses,3,7&,5976.2829445,6266.2940928,290.0111483,0,0
3263,2@,1,32,41,11,21,51,62,Abstract_Concrete_6tasks_simseq_2seq_listtask_switchAB_fMRI,974048,21345,43251,5,31,191,A5,tools,6,2@,5976.2829445,6276.2944239,300.0114794,0,0
1176,3#,1,31,41,12,22,52,61,Abstract_Concrete_6tasks_simseq_2seq_listtask_switchAB_fMRI,974048,21345,43251,5,32,192,B1,weapon,5,3#,5976.2829445,6287.2947498,311.011805300001,0,0
2083,7&,0,32,41,11,21,52,61,Abstract_Concrete_6tasks_simseq_2seq_listtask_switchAB_fMRI,974048,21345,43251,5,33,193,A2,helmet,1,9(,5976.2829445,6296.2943664,320.011421900001,6298.3884824,322.1055379
1216,3#,1,31,42,11,21,51,61,Abstract_Concrete_6tasks_simseq_2seq_listtask_switchAB_fMRI,974048,21345,43251,5,34,194,B1,weapon,5,3#,5976.2829445,6306.2939921,330.0110476,0,0
2323,9(,0,31,42,11,21,51,62,Abstract_Concrete_6tasks_simseq_2seq_listtask_switchAB_fMRI,974048,21345,43251,5,35,195,A4,weapon,5,3#,5976.2829445,6315.2940803,339.0111358,6317.6301068,341.3471623
2548,9(,1,32,42,12,21,52,61,Abstract_Concrete_6tasks_simseq_2seq_listtask_switchAB_fMRI,974048,21345,43251,5,36,196,B5,helmet,1,9(,5976.2829445,6325.2934032,349.010458700001,0,0
2215,7&,1,32,42,12,22,51,61,Abstract_Concrete_6tasks_simseq_2seq_listtask_switchAB_fMRI,974048,21345,43251,5,37,197,A3,glasses,3,7&,5976.2829445,6335.2937646,359.0108201,0,0
1603,4$,1,31,41,12,21,52,62,Abstract_Concrete_6tasks_simseq_2seq_listtask_switchAB_fMRI,974048,21345,43251,5,38,198,B3,vest,2,4$,5976.2829445,6345.2946192,369.0116747,0,0
1972,4$,1,32,41,11,21,51,62,Abstract_Concrete_6tasks_simseq_2seq_listtask_switchAB_fMRI,974048,21345,43251,5,39,199,A1,vest,2,4$,5976.2829445,6354.2954919,378.012547400001,0,0
1666,7&,1,32,41,12,21,51,62,Abstract_Concrete_6tasks_simseq_2seq_listtask_switchAB_fMRI,974048,21345,43251,5,40,200,B2,glasses,3,7&,5976.2829445,6363.2922078,387.0092633,0,0
2909,3#,1,31,41,12,22,52,61,Abstract_Concrete_6tasks_simseq_2seq_listtask_switchAB_fMRI,974048,21345,43251,6,1,201,A4,weapon,5,3#,6423.7279542,6431.7391692,8.01121500000045,0,0
1335,7&,1,32,42,12,21,51,62,Abstract_Concrete_6tasks_simseq_2seq_listtask_switchAB_fMRI,974048,21345,43251,6,2,202,B2,glasses,3,7&,6423.7279542,6441.7389612,18.0110070000001,0,0
1683,2@,1,32,42,11,21,52,61,Abstract_Concrete_6tasks_simseq_2seq_listtask_switchAB_fMRI,974048,21345,43251,6,3,203,A5,tools,6,2@,6423.7279542,6450.7416291,27.0136749000003,0,0
4775,2@,1,32,41,12,22,52,61,Abstract_Concrete_6tasks_simseq_2seq_listtask_switchAB_fMRI,974048,21345,43251,6,4,204,B4,tools,6,2@,6423.7279542,6459.7401742,36.0122200000005,0,0
2036,7&,1,32,42,12,22,51,62,Abstract_Concrete_6tasks_simseq_2seq_listtask_switchAB_fMRI,974048,21345,43251,6,5,205,A3,glasses,3,7&,6423.7279542,6471.7399321,48.0119779000006,0,0
1503,4$,1,31,41,12,21,51,62,Abstract_Concrete_6tasks_simseq_2seq_listtask_switchAB_fMRI,974048,21345,43251,6,6,206,B3,vest,2,4$,6423.7279542,6481.7396996,58.0117454000001,0,0
2270,4$,1,31,41,11,22,52,61,Abstract_Concrete_6tasks_simseq_2seq_listtask_switchAB_fMRI,974048,21345,43251,6,7,207,A1,vest,2,4$,6423.7279542,6490.7418672,67.0139130000007,0,0
3271,4$,1,32,42,11,21,51,62,Abstract_Concrete_6tasks_simseq_2seq_listtask_switchAB_fMRI,974048,21345,43251,6,8,208,B3,vest,2,4$,6423.7279542,6500.7415715,77.0136173000001,0,0
2718,9(,1,31,41,11,21,52,62,Abstract_Concrete_6tasks_simseq_2seq_listtask_switchAB_fMRI,974048,21345,43251,6,9,209,A2,helmet,1,9(,6423.7279542,6511.7416029,88.0136487,0,0
1685,7&,1,32,41,12,22,51,61,Abstract_Concrete_6tasks_simseq_2seq_listtask_switchAB_fMRI,974048,21345,43251,6,10,210,B2,glasses,3,7&,6423.7279542,6521.7383803,98.0104261000006,0,0
1639,4$,1,31,41,12,22,52,61,Abstract_Concrete_6tasks_simseq_2seq_listtask_switchAB_fMRI,974048,21345,43251,6,11,211,A1,vest,2,4$,6423.7279542,6530.7399296,107.011975400001,0,0
1242,3#,1,32,41,11,22,51,61,Abstract_Concrete_6tasks_simseq_2seq_listtask_switchAB_fMRI,974048,21345,43251,6,12,212,B1,weapon,5,3#,6423.7279542,6539.7395482,116.011594000001,0,0
2441,4$,1,32,42,11,22,51,62,Abstract_Concrete_6tasks_simseq_2seq_listtask_switchAB_fMRI,974048,21345,43251,6,13,213,A1,vest,2,4$,6423.7279542,6548.7404211,125.012466900001,0,0
1615,4$,1,31,42,12,22,52,61,Abstract_Concrete_6tasks_simseq_2seq_listtask_switchAB_fMRI,974048,21345,43251,6,14,214,B3,vest,2,4$,6423.7279542,6558.7402202,135.012266000001,0,0
1093,7&,1,31,41,11,22,52,62,Abstract_Concrete_6tasks_simseq_2seq_listtask_switchAB_fMRI,974048,21345,43251,6,15,215,A3,glasses,3,7&,6423.7279542,6567.7388083,144.0108541,0,0
2412,9(,1,32,41,12,22,52,62,Abstract_Concrete_6tasks_simseq_2seq_listtask_switchAB_fMRI,974048,21345,43251,6,16,216,B5,helmet,1,9(,6423.7279542,6576.7418418,153.0138876,0,0
1004,3#,1,31,41,12,21,51,62,Abstract_Concrete_6tasks_simseq_2seq_listtask_switchAB_fMRI,974048,21345,43251,6,17,217,A4,weapon,5,3#,6423.7279542,6586.7405953,163.0126411,0,0
3155,2@,1,31,42,11,22,52,61,Abstract_Concrete_6tasks_simseq_2seq_listtask_switchAB_fMRI,974048,21345,43251,6,18,218,B4,tools,6,2@,6423.7279542,6595.742546,172.014591800001,0,0
2711,2@,1,32,42,12,21,51,62,Abstract_Concrete_6tasks_simseq_2seq_listtask_switchAB_fMRI,974048,21345,43251,6,19,219,A5,tools,6,2@,6423.7279542,6606.7398941,183.0119399,0,0
1822,7&,1,32,41,11,22,51,61,Abstract_Concrete_6tasks_simseq_2seq_listtask_switchAB_fMRI,974048,21345,43251,6,20,220,B2,glasses,3,7&,6423.7279542,6616.7396074,193.0116532,0,0
1117,7&,1,32,41,12,22,51,61,Abstract_Concrete_6tasks_simseq_2seq_listtask_switchAB_fMRI,974048,21345,43251,6,21,221,A3,glasses,3,7&,6423.7279542,6625.7386427,202.0106885,0,0
1155,4$,1,32,41,11,22,52,61,Abstract_Concrete_6tasks_simseq_2seq_listtask_switchAB_fMRI,974048,21345,43251,6,22,222,B3,vest,2,4$,6423.7279542,6634.7409194,211.012965200001,0,0
1106,3#,1,31,41,11,22,52,61,Abstract_Concrete_6tasks_simseq_2seq_listtask_switchAB_fMRI,974048,21345,43251,6,23,223,A4,weapon,5,3#,6423.7279542,6643.7398436,220.011889400001,0,0
1450,9(,1,32,42,11,21,52,61,Abstract_Concrete_6tasks_simseq_2seq_listtask_switchAB_fMRI,974048,21345,43251,6,24,224,B5,helmet,1,9(,6423.7279542,6652.7410218,229.013067600001,0,0
1294,3#,1,31,41,11,22,51,62,Abstract_Concrete_6tasks_simseq_2seq_listtask_switchAB_fMRI,974048,21345,43251,6,25,225,A4,weapon,5,3#,6423.7279542,6661.7414443,238.0134901,0,0
2246,9(,1,32,41,11,22,51,62,Abstract_Concrete_6tasks_simseq_2seq_listtask_switchAB_fMRI,974048,21345,43251,6,26,226,B5,helmet,1,9(,6423.7279542,6670.7397301,247.0117759,0,0
2782,9(,1,31,42,12,22,52,62,Abstract_Concrete_6tasks_simseq_2seq_listtask_switchAB_fMRI,974048,21345,43251,6,27,227,A2,helmet,1,9(,6423.7279542,6680.7401104,257.0121562,0,0
1923,9(,1,32,42,12,22,52,62,Abstract_Concrete_6tasks_simseq_2seq_listtask_switchAB_fMRI,974048,21345,43251,6,28,228,B5,helmet,1,9(,6423.7279542,6690.7388972,267.010943,0,0
1283,7&,1,31,42,11,22,51,61,Abstract_Concrete_6tasks_simseq_2seq_listtask_switchAB_fMRI,974048,21345,43251,6,29,229,A3,glasses,3,7&,6423.7279542,6699.7404545,276.0125003,0,0
4246,2@,1,32,41,11,21,52,62,Abstract_Concrete_6tasks_simseq_2seq_listtask_switchAB_fMRI,974048,21345,43251,6,30,230,B4,tools,6,2@,6423.7279542,6708.7409254,285.012971200001,0,0
4588,2@,1,32,41,11,21,51,61,Abstract_Concrete_6tasks_simseq_2seq_listtask_switchAB_fMRI,974048,21345,43251,6,31,231,A5,tools,6,2@,6423.7279542,6720.7396623,297.011708100001,0,0
1072,3#,1,31,42,12,22,52,62,Abstract_Concrete_6tasks_simseq_2seq_listtask_switchAB_fMRI,974048,21345,43251,6,32,232,B1,weapon,5,3#,6423.7279542,6732.7390043,309.0110501,0,0
2126,2@,1,31,42,11,22,52,61,Abstract_Concrete_6tasks_simseq_2seq_listtask_switchAB_fMRI,974048,21345,43251,6,33,233,A5,tools,6,2@,6423.7279542,6741.7412852,318.013331,0,0
1079,3#,1,32,41,12,22,52,61,Abstract_Concrete_6tasks_simseq_2seq_listtask_switchAB_fMRI,974048,21345,43251,6,34,234,B1,weapon,5,3#,6423.7279542,6751.7396586,328.011704400001,0,0
1535,4$,1,32,42,11,22,52,62,Abstract_Concrete_6tasks_simseq_2seq_listtask_switchAB_fMRI,974048,21345,43251,6,35,235,A1,vest,2,4$,6423.7279542,6760.7408623,337.0129081,0,0
1546,3#,1,31,42,12,22,51,62,Abstract_Concrete_6tasks_simseq_2seq_listtask_switchAB_fMRI,974048,21345,43251,6,36,236,B1,weapon,5,3#,6423.7279542,6769.7397679,346.0118137,0,0
2253,9(,1,32,41,12,21,52,62,Abstract_Concrete_6tasks_simseq_2seq_listtask_switchAB_fMRI,974048,21345,43251,6,37,237,A2,helmet,1,9(,6423.7279542,6778.740374,355.0124198,0,0
3026,2@,1,32,41,11,22,51,61,Abstract_Concrete_6tasks_simseq_2seq_listtask_switchAB_fMRI,974048,21345,43251,6,38,238,B4,tools,6,2@,6423.7279542,6788.7398327,365.0118785,0,0
1551,9(,1,32,41,12,21,52,62,Abstract_Concrete_6tasks_simseq_2seq_listtask_switchAB_fMRI,974048,21345,43251,6,39,239,A2,helmet,1,9(,6423.7279542,6799.741218,376.0132638,0,0
3044,7&,1,31,42,12,21,52,61,Abstract_Concrete_6tasks_simseq_2seq_listtask_switchAB_fMRI,974048,21345,43251,6,40,240,B2,glasses,3,7&,6423.7279542,6808.7388703,385.0109161,0,0
